...1,S_ID,session,Run,block,trial,StimType,OrderCond,Name,NameFreq,RespOrder,NameFoil1,NameFoil2,NameDistractor1,NameDistractor2,DistractorNameFreq1,DistractorNameFreq2,Accuracy,Foil,Distractor,RT,RTonset,rpress,lpress,Confidence,ConfidenceRT,rConf
1,1,1,1,1,1,1,5,TRISTAN,250,7,LYNDON,JEROME,ANGUS,ZACHARY,247,574,1,NA,NA,2.86420340000041,1.0377232000028,2,0,4,0.915612299999339,4
2,1,1,1,1,2,1,2,CHANICE,37,1,AMINA,AMBER,KEISHA,FARHANA,37,46,1,NA,NA,5.07948290000058,2.83609559999604,4,1,2,0.977587400004268,2
3,1,1,1,1,3,1,5,LYNDON,37,11,ASHLEY,JACOB,SOREN,TRENT,37,10,1,NA,NA,2.80382919999829,1.1238474999991,3,0,3,0.922771400000784,3
4,1,1,1,1,4,1,6,AMBER,1422,12,JULIET,ANTONIA,GRACE,FAITH,1421,116,1,NA,NA,6.1335293000011,2.95457609999721,2,3,2,1.07496009999886,2
5,1,1,1,1,5,1,2,AMINA,151,5,AMBER,CARRIE,ELIZA,CANDICE,147,66,1,NA,NA,1.50004729999637,0.029072700002871,0,0,4,1.32054079999943,4
6,1,1,1,1,6,1,5,JEROME,135,9,CONRAD,ASHLEY,ARTHUR,DAYLE,129,30,NA,NA,NA,NA,NA,3,5,1,0.228145799999766,1
7,1,1,1,1,7,1,5,CONRAD,39,3,JACOB,EDWIN,LEONARD,BRADY,39,32,1,NA,NA,4.9985014000049,0.0270640000017011,0,0,2,0.830339300002379,2
8,1,1,1,1,8,1,8,CARRIE,97,15,CLARE,JESSICA,EMILIE,HELENA,96,308,1,NA,NA,4.89871449999919,3.35644719999982,2,1,2,1.26335029999609,2
9,1,1,1,1,9,1,3,FLYNN,20,2,TRISTAN,LYNDON,GRAEME,JASON,20,1001,1,NA,NA,3.92553369999951,1.81864500000665,1,1,2,0.841275400001905,2
10,1,1,1,1,10,1,8,CLARE,216,13,ANTONIA,AMINA,CASEY,BROOKE,215,269,1,NA,NA,3.57087580000371,1.52430209999875,3,0,2,0.925162999999884,2
11,1,1,1,1,11,1,1,JACOB,2249,16,EDWIN,FLYNN,CHARLIE,GETHIN,1912,38,1,NA,NA,2.00268140000117,0.77267330000177,3,0,4,1.48366079999687,4
12,1,1,1,1,12,1,6,JESSICA,6711,6,CHANICE,JULIET,EMILY,PENNY,6415,81,1,NA,NA,1.55174320000515,0.617939399999159,0,1,4,1.01143049999519,4
13,1,1,1,1,13,1,1,EDWIN,48,10,JEROME,TRISTAN,GILES,JARED,47,158,1,NA,NA,1.88299379999808,0.332822799995483,0,1,3,0.643750199997157,3
14,1,1,1,1,14,1,7,ASHLEY,1874,4,FLYNN,CONRAD,REECE,EAMON,1811,24,1,NA,NA,2.4177159000028,0.845959400001448,1,0,4,1.4450205999965,4
15,1,1,1,1,15,1,4,ANTONIA,234,14,CARRIE,CHANICE,ESTHER,WILLOW,231,1536,1,NA,NA,1.156281699994,0.306413700003759,0,1,4,0.953170600005251,4
16,1,1,1,1,16,1,4,JULIET,57,8,JESSICA,CLARE,KAITLIN,KEELEY,57,209,1,NA,NA,2.73119930000394,1.03771170000255,2,0,4,1.10417910000251,4
17,1,1,1,2,1,1,7,DILLON,174,8,AINSLEY,CIARAN,FRANCIS,LUCIEN,172,16,0,1,0,3.25967310000124,1.15868559999944,2,0,1,0.529784500002279,1
18,1,1,1,2,2,1,3,REUBEN,160,6,HECTOR,HAMZA,JARED,LEONARD,158,39,0,1,0,3.99152340000001,0.544371699994372,1,0,1,0.654315599997062,1
19,1,1,1,2,3,1,8,ELLIE,1900,14,PRIYA,PALOMA,"NATASHA",ROBYN,1751,683,1,NA,NA,4.34246660000645,1.96359549999761,1,0,1,0.513718200003495,1
20,1,1,1,2,4,1,5,KAINE,79,15,REUBEN,ARONAS,TERRY,SHELDON,79,52,0,1,0,4.76241659999505,1.38557980000041,1,0,1,0.563994399999501,1
21,1,1,1,2,5,1,7,HAMZA,220,3,CIARAN,HECTOR,ANTONY,ARCHIE,217,169,1,NA,NA,2.76815840000199,1.23141799999576,0,1,3,0.671157900003891,3
22,1,1,1,2,6,1,4,BONNIE,95,9,JAZMIN,TALIA,WHITNEY,MARNIE,95,41,1,NA,NA,1.82276339999953,0.564060199998494,0,1,4,1.02203320000262,4
23,1,1,1,2,7,1,8,HAYLEY,1088,4,PALOMA,LAUREN,HARRIET,MARYAM,1046,176,0,1,0,5.57093899999745,2.79932489999919,4,1,1,0.75377390000358,1
24,1,1,1,2,8,1,8,JAZMIN,62,2,BONNIE,HAYLEY,MAXINE,KAYLEY,62,127,1,NA,NA,4.01923779999925,1.59885059999942,0,1,1,0.508570300000429,1
25,1,1,1,2,9,1,6,TALIA,86,10,HAYLEY,PRIYA,HALIMA,FFION,85,201,0,1,0,3.74931159999687,2.04066140000214,1,0,2,1.22617940000055,2
26,1,1,1,2,10,1,1,HECTOR,29,13,KAINE,DILLON,MIKEY,QUINN,29,10,1,NA,NA,4.47748970000248,1.18243369999982,3,0,1,0.298954399993818,1
27,1,1,1,2,11,1,3,AINSLEY,43,1,ARONAS,KAINE,LAURIE,VINCENT,43,117,1,NA,NA,5.01584459999867,1.93868379999913,2,2,3,0.9067670000004,3
28,1,1,1,2,12,1,8,PALOMA,38,16,ELLIE,JAZMIN,CALLIE,ADINA,37,20,1,NA,NA,2.36194029999751,0.981548800002201,2,0,3,2.10924610000075,3
29,1,1,1,2,13,1,2,PRIYA,101,7,LAUREN,BONNIE,KIRBY,DARCY,100,107,1,NA,NA,1.79796720000013,0.556576399998448,0,1,3,0.766850799998792,3
30,1,1,1,2,14,1,1,CIARAN,278,11,HAMZA,AINSLEY,FRASER,LORENZO,278,36,0,0,1,4.04657530000259,0.0571716999984346,0,0,1,0.275982799998019,1
31,1,1,1,2,15,1,4,LAUREN,6299,12,TALIA,ELLIE,HANNAH,EBONY,5916,200,1,NA,NA,2.32454110000253,0.90133820000483,3,0,2,1.44485139999597,2
32,1,1,1,2,16,1,3,ARONAS,44,5,DILLON,REUBEN,MALIK,SANDEEP,44,25,1,NA,NA,1.9410313000044,1.09974309999961,0,1,3,1.91937220000545,3
33,1,1,1,3,1,1,7,MARIO,20,15,MARCO,AWAIS,VIVEK,JIMMY,20,80,1,NA,NA,2.97679900000367,0.0365495000005467,0,0,2,0.931369500001892,2
34,1,1,1,3,2,1,6,HUMAIRA,46,10,ELYSIA,JAYDE,JAIME,SYDNEY,46,98,0,1,0,7.6143768999973,3.19745900000271,3,2,1,0.860862400004407,1
35,1,1,1,3,3,1,6,JESSIE,194,6,SUSAN,HUMAIRA,HEIDI,PORTIA,193,28,0,1,0,5.69519259999652,2.89951920000021,1,1,2,2.03338670000085,2
36,1,1,1,3,4,1,4,CATRIN,102,11,JESSIE,LIBERTY,LOREN,ISOBEL,102,522,1,NA,NA,3.34864370000287,0.796938600004069,0,1,3,0.783493899994937,3
37,1,1,1,3,5,1,3,JOHNNY,32,14,TYRONE,MARIO,MILAN,AYRTON,32,37,1,NA,NA,3.4670918999982,0.763566499997978,2,0,2,1.37072540000372,2
38,1,1,1,3,6,1,7,DONALD,23,1,JOHNNY,TYRONE,GERALD,CALLUM,23,4281,0,0,1,7.03061940000043,3.88739039999928,3,1,1,0.431849300002796,1
39,1,1,1,3,7,1,3,MAXIM,36,12,DONALD,MARCO,TARIQ,RALPH,36,47,1,NA,NA,2.96467540000594,0.837860399995407,0,1,2,0.922249000002921,2
40,1,1,1,3,8,1,8,JAYDE,58,2,HUMAIRA,ELYSIA,VICKY,CECILIA,58,27,1,NA,NA,4.23698259999946,0.925940699999046,1,0,1,0.531770800000231,1
41,1,1,1,3,9,1,8,SUSAN,82,8,MARIE,CATRIN,PENNY,KEISHA,81,37,0,1,0,5.76349070000288,2.86596679999639,0,1,1,0.748820799999521,1
42,1,1,1,3,10,1,2,LIBERTY,144,13,CATRIN,MARIE,HAZEL,SHELLEY,141,84,1,NA,NA,3.17472270000144,0.792142099999182,2,0,3,0.78251789999922,3
43,1,1,1,3,11,1,3,TYRONE,117,9,MAXIM,ADRIAN,VINCENT,FREDDY,117,25,1,NA,NA,3.2460371000052,1.62698740000633,3,0,4,1.32011890000285,4
44,1,1,1,3,12,1,2,MARIE,129,3,JAYDE,JESSIE,TAYLA,MABEL,129,17,0,0,1,5.45567740000115,2.66723199999979,0,1,1,0.446435300000303,1
45,1,1,1,3,13,1,1,AWAIS,50,4,ADRIAN,MAXIM,MARLEY,TUDOR,50,15,1,NA,NA,5.80751099999907,4.05610940000042,3,1,1,1.3411941000013,1
46,1,1,1,3,14,1,3,MARCO,76,16,MARIO,DONALD,ISMAIL,FRANCIS,75,172,1,NA,NA,4.20222240000294,1.00795729999663,3,0,3,0.881079700004193,3
47,1,1,1,3,15,1,2,ELYSIA,72,5,LIBERTY,SUSAN,HAFSA,HALIMA,72,85,1,NA,NA,2.60690330000216,0.865001499994833,1,0,3,0.798022399998445,3
48,1,1,1,3,16,1,5,ADRIAN,155,7,AWAIS,JOHNNY,BLAKE,HENRY,154,1135,1,NA,NA,4.08775590000005,1.41576189999614,3,0,2,1.36264010000014,2
49,1,1,1,4,1,1,1,CYRUS,29,16,SAMUEL,AUSTIN,DARNELL,FABIO,29,28,0,1,0,3.97129750000022,0.0375596000012592,0,0,1,0.404014899999311,1
50,1,1,1,4,2,1,5,BOBBY,126,12,BRODIE,IBRAHIM,SPENCER,CHRIS,124,17,1,NA,NA,2.51494419999653,0.780969500003266,3,0,3,0.736150600001565,3
51,1,1,1,4,3,1,4,MILLIE,324,9,MAIYA,BROGAN,SHAUNA,CERYS,316,92,1,NA,NA,2.35130600000412,0.934553200000664,1,0,2,1.08968850000383,2
52,1,1,1,4,4,1,3,TOMMY,247,10,CYRUS,BRODIE,RICKY,KESTER,242,16,1,NA,NA,4.03329820000363,0.569776099997398,2,0,1,0.623483299998043,1
53,1,1,1,4,5,1,8,BROGAN,165,2,RIANNA,MILLIE,"NADINE",LEIGH,165,125,1,NA,NA,5.52452260000427,2.45939720000024,2,0,1,0.357689700002084,1
54,1,1,1,4,6,1,1,SAMUEL,6161,5,IBRAHIM,BOBBY,JORDAN,OMARI,5750,30,NA,NA,NA,NA,NA,1,2,1,0.724382199994579,1
55,1,1,1,4,7,1,7,AUSTIN,65,14,ALISTER,PARKER,ANDREAS,KILLIAN,64,10,0,1,0,4.80594510000083,0.910246300001745,3,0,1,0.662286499995389,1
56,1,1,1,4,8,1,2,VERITY,114,6,MILLIE,SHARNA,CELINE,MIKAELA,113,37,1,NA,NA,2.86275890000252,0.964162500000384,3,0,4,0.80025459999888,4
57,1,1,1,4,9,1,2,ISABEL,455,7,SHARNA,MAIYA,KELSEY,SACHA,438,57,1,NA,NA,4.48733019999781,0.414444399997592,0,1,1,0.713810399996873,1
58,1,1,1,4,10,1,1,PARKER,407,4,AUSTIN,ALISTER,LANCE,ISAAC,35,480,0,0,1,5.44597440000507,1.58705730000656,2,0,1,0.394267100004072,1
59,1,1,1,4,11,1,2,RIANNA,90,13,VERITY,ISABEL,SADIA,ELEANOR,90,2555,1,NA,NA,2.68950420000328,0.037211800001387,0,0,1,0.778631500004849,1
60,1,1,1,4,12,1,7,ALISTER,30,1,TOMMY,CYRUS,DAYLE,BYRON,30,46,0,1,0,4.12194920000184,1.2492510000011,1,0,1,0.716956199998094,1
61,1,1,1,4,13,1,3,IBRAHIM,129,15,BOBBY,SAMUEL,SONNY,BLAKE,127,154,1,NA,NA,2.61156959999789,0.0358824000068125,0,0,3,0.891300199997204,3
62,1,1,1,4,14,1,6,MAIYA,48,11,ISABEL,RIANNA,CANDICE,BARBARA,66,26,0,0,1,3.69224260000192,0.140489999997953,0,1,1,0.767668400003458,1
63,1,1,1,4,15,1,4,SHARNA,111,8,BROGAN,VERITY,CLARA,SIMONE,107,158,1,NA,NA,1.92111260000092,0.0364429000037489,0,0,3,0.926977800001623,3
64,1,1,1,4,16,1,3,BRODIE,46,3,PARKER,TOMMY,BYRON,ZAYNE,46,41,1,NA,NA,4.33855300000141,0.0556818999975803,0,0,1,0.391705800000636,1
65,1,1,1,5,1,1,1,FARHAN,37,16,SANJAY,HOWARD,JARVIS,MICHAEL,37,4187,0,0,1,3.94307750000007,0.431376699998509,1,0,1,0.488426900003105,1
66,1,1,1,5,2,1,5,GERARD,38,12,PAOLO,RILEY,GETHIN,ARTHUR,38,129,1,NA,NA,3.10910720000538,0.824098500001128,2,0,4,0.821108399999503,4
67,1,1,1,5,3,1,3,HOWARD,47,1,PIERCE,JONAS,RALPH,JACQUES,47,53,1,NA,NA,4.87218009999924,0.652653700002702,1,0,1,0.715813100003288,1
68,1,1,1,5,4,1,1,JONAS,21,13,GERARD,FARHAN,RONALD,MILAN,21,32,0,0,1,6.19452550000278,0.0372419999985141,0,0,1,0.344828000001144,1
69,1,1,1,5,5,1,5,SANJAY,29,6,ABRAHAM,PIERCE,DEVANTE,TERENCE,29,58,1,NA,NA,7.15509549999842,0.498054500007129,1,0,1,0.573152299999492,1
70,1,1,1,5,6,1,8,ALICE,2357,10,MISHA,NIKKI,RACHEL,BRIDIE,2105,76,1,NA,NA,3.73022299999866,0.786649099994975,1,0,4,1.03026870000031,4
71,1,1,1,5,7,1,6,SELINA,158,7,NIKKI,AISLING,SIMONE,"NATASHA",158,1751,0,1,0,4.7873075000025,0.037946299999021,0,0,1,0.280864399996062,1
72,1,1,1,5,8,1,4,AMIRA,33,5,ALICE,MANISHA,TIANA,CARMEN,33,60,1,NA,NA,4.09461329999613,0.90195940000558,3,0,3,0.791640099996584,3
73,1,1,1,5,9,1,5,RILEY,32,15,JONAS,ABRAHAM,WASIM,TYRELL,32,55,0,0,1,5.11184980000689,0.957619399996474,1,0,1,0.447594499994011,1
74,1,1,1,5,10,1,4,MANISHA,73,4,AMIRA,SELINA,SAIRA,MAEVE,73,24,1,NA,NA,2.80069219999859,0.929987000003166,1,0,3,0.974881400004961,3
75,1,1,1,5,11,1,6,AISLING,70,9,SELINA,MISHA,DONNA,CELINE,69,113,1,NA,NA,2.71269759999996,0.415805900003761,0,1,2,1.24459239999851,2
76,1,1,1,5,12,1,8,NIKKI,102,8,MANISHA,AMIRA,FLORA,ASHLEA,101,52,1,NA,NA,4.32545260000188,0.807778900001722,3,0,2,0.65305359999911206,2
77,1,1,1,5,13,1,7,PIERCE,61,2,RILEY,GERARD,SOLOMON,AKEEM,60,27,1,NA,NA,5.82682130000467,1.34979619999649,0,1,1,0.319935399995302,1
78,1,1,1,5,14,1,2,MISHA,43,14,AISLING,ALICE,ALINA,SHANA,42,42,1,NA,NA,3.47748000000138,0.799418800001149,0,1,3,0.743501800003287,3
79,1,1,1,5,15,1,7,PAOLO,16,3,FARHAN,SANJAY,TERRELL,MIKEY,16,29,0,0,1,7.79610330000287,3.54889000000549,2,1,1,0.338314300002821,1
80,1,1,1,5,16,1,5,ABRAHAM,40,11,HOWARD,PAOLO,CARLTON,JESSE,40,161,1,NA,NA,2.50552850000531,0.936774599998898,0,1,3,1.20867110000108,3
81,1,1,1,6,1,1,4,LOUISE,1309,9,MADDIE,ELISE,ABBIE,TRACY,1297,34,1,NA,NA,3.86144490000152,0.385613500002364,1,0,4,0.847448100001202,4
82,1,1,1,6,2,1,7,WESLEY,185,8,FAHIM,TRAVIS,JUSTIN,MAXWELL,182,160,1,NA,NA,6.22095010000339,1.59086150000076,3,0,2,0.479008099995553,2
83,1,1,1,6,3,1,3,MITCHEL,54,1,LEYTON,BARNEY,JACQUES,OLIVIER,53,10,1,NA,NA,4.45861399999558,0.0472620000000461,0,0,1,0.528434899999411,1
84,1,1,1,6,4,1,8,ELISE,253,13,KAREN,AILISH,KATRINA,BECKY,251,146,1,NA,NA,2.95740269999806,0.374122900000657,1,0,3,0.607964900002116,3
85,1,1,1,6,5,1,7,LEYTON,16,16,BARNEY,FAHIM,LUCIEN,LUCAS,16,202,0,0,1,4.35898749999615,0.0376089999990654,0,0,1,0.285086100004264,1
86,1,1,1,6,6,1,2,ELENA,213,2,SUMMER,MARGOT,VANESSA,ROISIN,213,134,1,NA,NA,6.10071489999973,1.28336000000127,0,1,2,0.843589300005988,2
87,1,1,1,6,7,1,7,BARNEY,37,4,CHESTER,MITCHEL,CARLOS,ALLAN,37,37,1,NA,NA,3.87038339999708,0.699297099999967,2,0,1,1.29757270000118,1
88,1,1,1,6,8,1,4,MARGOT,293,5,AILISH,ELENA,HENNA,MAISIE,82,335,1,NA,NA,3.09294419999787,0.406006299999717,0,1,1,0.708434699998179,1
89,1,1,1,6,9,1,6,MADDIE,37,14,MARGOT,KAREN,MIKAELA,CAMILLA,37,62,0,0,1,5.87610870000208,1.09892989999935,1,1,1,0.38355550000415,1
90,1,1,1,6,10,1,4,SUMMER,203,15,LETITIA,LOUISE,DEANNA,ANDREA,202,74,1,NA,NA,2.32612049999443,0.81599489999644,0,1,3,0.687612199995783,3
91,1,1,1,6,11,1,6,AILISH,38,6,ELENA,LETITIA,JAYNE,CONNIE,38,144,1,NA,NA,7.20287739999912,3.23618649999844,4,1,2,0.585133700005827,2
92,1,1,1,6,12,1,1,TRAVIS,205,7,WESLEY,LEYTON,LUCAS,ANTONY,202,217,0,1,0,4.33092829999805,1.74810119999893,3,0,1,0.535519099998055,1
93,1,1,1,6,13,1,6,LETITIA,44,11,LOUISE,SUMMER,MAISY,LEANNA,44,40,1,NA,NA,4.31606640000246,0.0383392000003369,0,0,2,0.478263100005279,2
94,1,1,1,6,14,1,5,FAHIM,24,12,TRAVIS,CHESTER,JERRY,RAYMOND,24,78,1,NA,NA,3.0161592000004,0.623548999996274,2,0,3,0.702264400002605,3
95,1,1,1,6,15,1,8,KAREN,76,10,ELISE,MADDIE,KYLIE,SAMINA,76,41,1,NA,NA,4.51948279999488,1.01454959999683,3,0,2,0.48653789999662,2
96,1,1,1,6,16,1,1,CHESTER,24,3,MITCHEL,WESLEY,DERRY,BARRY,24,45,0,1,0,4.23597940000036,2.03719080000155,1,0,2,0.644416900002398,2
97,1,1,1,7,1,1,4,BETHANY,4271,8,AYSHA,REBECCA,GEORGIA,STORM,3723,36,1,NA,NA,3.76083509999444,1.58062400000199,1,0,2,0.645228299996234,2
98,1,1,1,7,2,1,1,HAIDER,51,11,AYDEN,HARRIS,VICTOR,LEWIS,51,3569,0,0,1,4.6935702999981,1.93165980000049,2,1,1,0.350970300001791,1
99,1,1,1,7,3,1,3,HARRIS,42,15,FREDDIE,ALBERT,MICAH,TERRY,42,79,0,0,1,5.09652749999805,1.41678120000142,1,2,1,0.326217699999688,1
100,1,1,1,7,4,1,2,AYSHA,94,3,JOANNA,CHARIS,KEIRA,DOROTHY,94,18,1,NA,NA,3.06216760000098,0.0427228999978979,0,0,3,0.791085199998633,3
101,1,1,1,7,5,1,6,JOANNA,374,14,BETHANY,KRISTY,ALISHA,TIANA,363,33,1,NA,NA,4.92393309999898,1.28570570000011,1,1,2,0.499504400002479,2
102,1,1,1,7,6,1,8,CHARIS,52,12,CARLY,ROSANNA,LARISSA,SIMRAN,51,240,0,1,0,4.04657130000123,1.54768829999375,1,0,1,0.793613000001642,1
103,1,1,1,7,7,1,6,CARLY,235,7,BRONTE,LAILA,SADIE,SAVANNA,235,40,1,NA,NA,3.59795939999458,0.0385821000018041,0,0,2,0.647296600000118,2
104,1,1,1,7,8,1,8,LAILA,35,2,FARZANA,BRONTE,PIPPA,TANYA,35,169,1,NA,NA,5.35617740000453,0.039547100001073,0,0,1,0.278796400001738,1
105,1,1,1,7,9,1,8,BRONTE,59,4,ROSANNA,JOANNA,FEARNE,LIBBY,143,191,1,NA,NA,2.73831950000022,0.0383655999976327,0,0,3,0.634541999999783,3
106,1,1,1,7,10,1,2,REBECCA,5828,13,CHARIS,CARLY,MEGAN,HEIDI,4948,193,1,NA,NA,2.64844770000491,1.11179909999919,0,1,4,0.859968700002355,4
107,1,1,1,7,11,1,5,FREDDIE,89,5,ALBERT,HAIDER,FRANK,GILES,86,47,0,0,1,3.95777570000064,0.302597299996705,0,1,1,0.360307800001465,1
108,1,1,1,7,12,1,7,AYDEN,27,10,HARRIS,FREDDIE,NICKY,GLENN,27,100,0,0,1,4.14988930000254,1.82423570000537,3,1,1,0.450023299999884,1
109,1,1,1,7,13,1,4,KRISTY,39,16,LAILA,AYSHA,LUISA,RACHEL,39,2105,0,0,1,4.30367490000208,0.725714499996684,1,0,1,0.410876800000551,1
110,1,1,1,7,14,1,1,ALBERT,110,1,HAIDER,AYDEN,BAILEY,CHARLES,109,1738,0,1,0,6.9545225000038,2.08903239999927,3,0,1,0.380625800004054,1
111,1,1,1,7,15,1,6,FARZANA,45,9,KRISTY,BETHANY,LIANNE,TAMARA,45,397,1,NA,NA,5.35822080000071,1.08862070000032,1,2,2,0.970348800001375,2
112,1,1,1,7,16,1,8,ROSANNA,99,6,REBECCA,FARZANA,DANNI,ABBIE,98,1297,1,NA,NA,3.70496169999387,0.412892499996815,0,1,3,0.616492199995264,3
113,1,1,1,8,1,1,6,YASMIN,661,9,SABAH,ALANIS,KATHRYN,VANESSA,635,213,1,NA,NA,3.60977789999743,1.01875000000291,2,0,4,0.822452000000339,4
114,1,1,1,8,2,1,7,ARNOLD,18,15,PHILIP,LORCAN,CLAUDE,AHMED,18,206,1,NA,NA,5.2115174999999,1.99504799999704,2,1,1,0.456051000001025,1
115,1,1,1,8,3,1,8,DIONNE,89,6,LEONA,MIRANDA,LILLY,KIRBY,89,100,0,1,0,4.12188799999421,0.0387432999996236,0,0,1,0.331079600000521,1
116,1,1,1,8,4,1,3,ELLIOT,919,2,DANNY,PHILIP,BILLY,AARON,914,2511,1,NA,NA,3.70795060000091,0.332140400001663,0,1,2,1.274742900001,2
117,1,1,1,8,5,1,5,ARJUN,72,10,ELLIOT,MOSES,PIERS,CURTIS,71,757,1,NA,NA,4.20144730000175,0.832911700003024,1,0,2,0.81235430000379,2
118,1,1,1,8,6,1,4,"NAOMI",766,16,DIONNE,LEONA,RACHAEL,KAYLA,721,48,1,NA,NA,3.94843370000308,1.73768980000023,1,1,1,0.671111699994071,1
119,1,1,1,8,7,1,8,SORCHA,34,7,LEILA,SABAH,TRACY,FAIZA,34,42,0,0,1,5.22972469999513,1.6189916000003,1,0,1,0.27253429999837,1
120,1,1,1,8,8,1,2,SABAH,75,8,YASMIN,LEILA,ANDREA,EVELYN,74,80,0,0,1,5.74577950000094,1.66005580000638,3,0,1,0.381506100005936,1
121,1,1,1,8,9,1,2,LEONA,57,13,"NAOMI",YASMIN,SACHA,DEANNA,57,202,0,0,1,5.49622359999921,1.62792520000221,1,2,1,0.834247300001152,1
122,1,1,1,8,10,1,5,PHILIP,481,14,ARNOLD,ELLIOT,ISAAC,JULIEN,480,14,1,NA,NA,4.47202120000293,0.959438300000329,2,1,2,0.986156100007065,2
123,1,1,1,8,11,1,1,LORCAN,17,11,MOSES,DANNY,MARVIN,GARRY,17,29,1,NA,NA,3.13869639999757,0.724540399998659,2,0,3,0.714540900000429,3
124,1,1,1,8,12,1,6,MIRANDA,113,1,SORCHA,"NAOMI",TEGAN,DONNA,112,69,1,NA,NA,2.80936400000064,0.917585499999404,0,1,2,0.974402800005919,2
125,1,1,1,8,13,1,4,LEILA,83,5,ALANIS,SORCHA,SHIVANI,MEGAN,83,4948,1,NA,NA,3.18602929999906,0.036951299996872,0,0,2,1.63761340000201,2
126,1,1,1,8,14,1,1,DANNY,565,12,ARJUN,ARNOLD,COREY,BILLY,527,914,0,1,0,4.86076069999399,1.42075360000308,2,0,1,0.447750599996652,1
127,1,1,1,8,15,1,7,MOSES,29,4,LORCAN,ARJUN,BUSTER,PIERS,33,71,1,NA,NA,6.04961679999542,2.38375230000383,4,1,2,0.694305099998019,2
128,1,1,1,8,16,1,8,ALANIS,31,3,MIRANDA,DIONNE,BRIANNA,PHOEBE,31,910,0,1,0,5.14739499999996,2.12904290000006,2,0,1,0.665594600002805,1
129,1,1,1,9,1,1,4,PAIGE,2052,2,ELISHA,LACEY,MOLLY,FLORA,2026,101,1,NA,NA,2.81191989999934,0.0611601999989944,0,0,1,0.354025400003593,1
130,1,1,1,9,2,1,5,WILLIAM,4269,10,DAFYDD,ANDRE,MICHAEL,AKASH,4187,57,1,NA,NA,4.18670949999796,0.735020099993562,3,0,3,0.531260499999917,3
131,1,1,1,9,3,1,1,LESLIE,31,12,HASAN,PERRY,NIGEL,GERAINT,31,46,0,1,0,2.99371390000306,0.042673999996623,0,0,1,0.343875499995193,1
132,1,1,1,9,4,1,6,"NATALIE",1393,6,PAIGE,SEREN,JODIE,EMILY,1354,6415,0,0,1,3.06337349999376,0.426181900002121,0,1,1,0.427662499998405,1
133,1,1,1,9,5,1,7,DONOVAN,24,5,WILLIAM,DAFYDD,EAMON,KENNY,24,33,1,NA,NA,3.22918149999896,0.779143200001272,2,0,3,1.21463089999452,3
134,1,1,1,9,6,1,1,CHASE,17,15,DONOVAN,LESLIE,CHRIS,FELIX,17,149,0,1,0,6.46069249999709,3.03506570000172,2,0,1,0.291174799996952,1
135,1,1,1,9,7,1,4,SEREN,46,3,CARLA,PAIGE,SHARON,HARRIET,46,1046,1,NA,NA,1.9499438999992,0.441670300002443,0,1,4,1.05771200000163,4
136,1,1,1,9,8,1,6,ELISHA,240,4,SEREN,CARLA,SIMRAN,KATHRYN,240,635,1,NA,NA,6.07174490000034,4.30459749999864,4,1,1,0.291167299998051,1
137,1,1,1,9,9,1,7,HASAN,123,14,EMILIO,CHASE,FERGUS,KEVIN,120,250,0,1,0,3.91774810000061,1.05371349999768,2,1,1,0.560247100002016,1
138,1,1,1,9,10,1,1,ANDRE,167,11,LESLIE,WILLIAM,JESSE,MILES,161,223,1,NA,NA,2.17408199999772,0.392897799996717,1,0,4,1.28374379999877,4
139,1,1,1,9,11,1,2,CARLA,230,1,"NATALIE",BRYONY,KIRSTEN,AOIFE,225,71,0,1,0,5.04740950000269,3.49577999999747,3,1,1,0.401222899999993,1
140,1,1,1,9,12,1,2,BRYONY,362,9,LACEY,ELISHA,ELOISE,HAFSA,351,72,1,NA,NA,4.44141759999911,0.820282500004396,1,2,3,1.46982139999454,3
141,1,1,1,9,13,1,7,PERRY,139,16,CHASE,HASAN,DAMON,LEROY,136,17,1,NA,NA,3.77357510000002,0.754450999993423,3,0,3,0.738012100002379,3
142,1,1,1,9,14,1,8,LACEY,85,7,BRYONY,"NATALIE",SHELLEY,ROSIE,84,879,1,NA,NA,3.29887069999677,0.98631110000133,0,1,2,0.530757400003495,2
143,1,1,1,9,15,1,7,DAFYDD,84,13,PERRY,EMILIO,ROBSON,RICKY,84,242,1,NA,NA,1.95897200000036,0.0341623999993317,0,0,3,1.6680223000003,3
144,1,1,1,9,16,1,3,EMILIO,25,8,ANDRE,DONOVAN,FREDDY,JUNAID,25,114,1,NA,NA,2.86043119999522,0.85496840000269,3,0,2,0.676937999996881,2
145,1,1,1,10,1,1,1,KEATON,41,3,HYWEL,JAMIE,ZAYNE,CARLOS,41,37,1,NA,NA,5.20912200000021,0.86959790000401,1,0,1,0.26960169999802,1
146,1,1,1,10,2,1,8,AIMEE,876,2,SAFIA,SHANNEN,DAISY,TEGAN,828,112,1,NA,NA,4.32740509999712,1.3907990000007,2,0,3,0.740057700000762,3
147,1,1,1,10,3,1,5,HYWEL,28,4,QASIM,NELSON,AKEEM,BRADLEY,27,2557,0,0,1,4.46096680000483,1.24526889999834,1,0,1,0.476230899999791,1
148,1,1,1,10,4,1,1,CARWYN,40,8,NELSON,ANTON,DEREK,BERNARD,40,23,1,NA,NA,4.8876350999999,2.01259819999541,1,2,1,0.341751699997985,1
149,1,1,1,10,5,1,6,SHANNEN,51,15,AIMEE,NIAMH,LYNDSEY,ZAHRA,50,106,0,0,1,3.65708029999951,0.91325009999855,2,0,1,0.490248599999177,1
150,1,1,1,10,6,1,2,SAFIA,41,14,PAISLEY,ZAINAB,SAMINA,CLARA,41,107,1,NA,NA,6.63060689999838,3.236023999998,0,1,1,0.297383000004629,1
151,1,1,1,10,7,1,4,PAISLEY,40,13,AUTUMN,JENNA,SAVANNA,HANNAH,40,5916,1,NA,NA,6.07003680000344,4.66160390000005,4,1,2,1.05527760000405,2
152,1,1,1,10,8,1,4,NIAMH,381,6,ZAINAB,AUTUMN,ANNABEL,ATLANTA,380,103,0,1,0,4.87334530000226,0.0447436999966158,0,0,1,0.445969899999909,1
153,1,1,1,10,9,1,2,AUTUMN,80,10,SHANNEN,SAFIA,EVELYN,ROSALYN,80,15,1,NA,NA,4.69718310000462,0.0388371999943047,0,0,1,0.99965940000402,1
154,1,1,1,10,10,1,1,EDDIE,34,11,CARWYN,KEATON,RISHI,RONALD,34,21,1,NA,NA,2.40906240000186,0.49814069999411,1,0,4,1.16322479999508,4
155,1,1,1,10,11,1,7,ANTON,76,12,JAMIE,QASIM,COLIN,SHANE,76,846,1,NA,NA,2.66852199999994,0.828774399997201,3,0,4,0.819481799997448,4
156,1,1,1,10,12,1,7,JAMIE,2688,16,KEATON,EDDIE,ANDREW,DAMON,2676,136,0,0,1,5.81153469999845,1.87606220000453,2,0,1,0.443408299994189,1
157,1,1,1,10,13,1,3,NELSON,17,9,EDDIE,CARWYN,OAKLEY,BRANDON,17,1337,1,NA,NA,3.39015350000409,0.0407248999981675,0,0,4,1.06622989999596,4
158,1,1,1,10,14,1,6,JENNA,289,1,NIAMH,AIMEE,"NADIA",BRIDGET,285,56,1,NA,NA,3.45194130000164,1.17634189999808,2,0,1,1.69537300000229,1
159,1,1,1,10,15,1,2,ZAINAB,154,7,JENNA,PAISLEY,FATIMA,HONOR,153,43,1,NA,NA,6.95712110000022,3.83000739999989,3,1,1,0.509956900001271,1
160,1,1,1,10,16,1,5,QASIM,73,5,ANTON,HYWEL,REISS,EDGAR,73,13,1,NA,NA,1.52464320000581,0.029954199999338,0,0,3,1.35957179999969,3
161,1,1,1,11,1,1,3,FABIAN,61,2,RIKESH,CLAYTON,HAROON,MASON,61,320,0,1,0,5.25429849999637,3.31379649999872,4,2,1,0.338680199994997,1
162,1,1,1,11,2,1,7,TREVOR,21,11,STEWART,RUPERT,CARTER,VISHAL,20,47,1,NA,NA,2.61811889999808,0.717591399996309,1,0,3,0.618875799998932,3
163,1,1,1,11,3,1,8,MELISSA,1282,14,SOPHIE,AALIYAH,GEMMA,KEIRA,1261,94,1,NA,NA,3.75146880000102,0.753723199995875,0,1,2,0.731580400002713,2
164,1,1,1,11,4,1,4,KIRSTY,1202,6,TILLY,SOPHIE,JASMINE,KELSEY,1145,438,1,NA,NA,2.44117420000111,0.0408820000011474,0,0,2,0.959963699999207,2
165,1,1,1,11,5,1,5,MURRAY,38,15,CLAYTON,TREVOR,ALLAN,ROGER,37,22,1,NA,NA,2.5549927999964,0.316873000003397,0,1,1,0.394066200002271,1
166,1,1,1,11,6,1,3,STEWART,64,16,FABIAN,ARJAN,KELVIN,DAMIEN,63,90,1,NA,NA,2.48130780000065,0.351838199996564,0,1,1,0.347240900002362,1
167,1,1,1,11,7,1,6,MATILDA,200,7,MELISSA,KIRSTY,SHANICE,PIPPA,200,35,0,1,0,4.29091530000005,2.49419110000599,3,0,1,0.337673499998346,1
168,1,1,1,11,8,1,7,RUPERT,71,4,ETHAN,FABIAN,GRAHAM,CASSIUS,70,9,1,NA,NA,4.28300160000072,1.59254260000307,0,1,1,0.297026700005517,1
169,1,1,1,11,9,1,1,ARJAN,19,10,RUPERT,RIKESH,AUSTEN,JARVIS,19,37,1,NA,NA,3.23092069999984,1.33637759999692,0,1,1,0.614410900001531,1
170,1,1,1,11,10,1,2,AALIYAH,111,9,MATILDA,TILLY,ANISHA,KARINA,111,65,1,NA,NA,3.23792559999856,0.966392499998619,2,0,2,1.11658650000027,2
171,1,1,1,11,11,1,3,RIKESH,18,1,DOMINIC,ETHAN,ROLAND,VINAY,18,26,1,NA,NA,4.67193570000381,1.46860529999685,1,0,1,0.287202499996056,1
172,1,1,1,11,12,1,3,CLAYTON,55,8,ARJAN,DOMINIC,TYRELL,BILAL,55,144,1,NA,NA,2.9068952000016,0.849955099998624,3,0,3,0.857440300002054,3
173,1,1,1,11,13,1,2,TILLY,105,12,KIRSTY,MELISSA,ATLANTA,DANNI,103,98,0,1,0,5.27434189999622,2.13050350000412,3,0,1,0.291923699995095,1
174,1,1,1,11,14,1,5,ETHAN,604,13,TREVOR,MURRAY,ZACHARY,LLOYD,574,299,0,0,1,4.50243819999741,0.696403800000553,2,0,1,0.27837290000025,1
175,1,1,1,11,15,1,6,SOPHIE,7087,5,AALIYAH,MATILDA,CHLOE,FIONA,6824,278,0,1,0,4.34795149999991,0.0644395999988774,0,0,2,1.52811050000309,2
176,1,1,1,11,16,1,3,DOMINIC,1519,3,MURRAY,STEWART,BRANDON,DOUGLAS,1337,142,1,NA,NA,1.6397031000015,0.03626549999899,0,0,3,1.1260672999997,3
177,1,1,1,12,1,1,5,XAVIER,58,8,MALCOLM,MARTIN,ADNAN,STUART,57,405,0,1,0,2.91217759999563,0.462611499999184,0,1,1,0.994981799995003,1
178,1,1,1,12,2,1,6,MARIA,511,4,CHANEL,KERRY,STACEY,JORDANA,509,26,1,NA,NA,1.82143779999751,0.415604200003145,0,1,4,0.855758700003207,4
179,1,1,1,12,3,1,8,ADELE,144,9,MARIA,TONICHA,CONNIE,SASHA,144,333,0,1,0,3.45151479999913,0.0400267000004533,0,0,1,0.368744499995955,1
180,1,1,1,12,4,1,2,ANIKA,52,2,ADELE,CHANEL,ASHLEA,SAIRA,52,73,1,NA,NA,3.13266879999719,2.07596619999822,0,1,3,0.809247600001981,3
181,1,1,1,12,5,1,5,MALCOLM,39,7,AHMAD,KIERAN,ADEEL,JUSTIN,38,182,0,1,0,3.64702340000076,1.18205869999656,0,1,1,0.498676099996374,1
182,1,1,1,12,6,1,5,ARRAN,153,10,BRENT,AHMAD,FELIX,BUSTER,149,33,0,0,1,1.85117979999632,0.352082299999893,0,1,1,0.560826900000393,1
183,1,1,1,12,7,1,7,AHMAD,57,15,XAVIER,MALCOLM,AKASH,TARAN,57,31,0,1,0,2.71976250000444,0.0394088000030024,0,0,1,0.456467399999383,1
184,1,1,1,12,8,1,3,MARTIN,435,13,FRANKIE,ARRAN,STUART,FINLAY,405,78,0,1,0,3.93137999999453,0.904904399998486,3,0,1,0.294843799994851,1
185,1,1,1,12,9,1,6,JEMIMA,177,16,ANIKA,SIONED,MARYAM,ANGELA,176,87,1,NA,NA,4.3271808999998,1.1764234000002,3,1,1,0.32946030000312,1
186,1,1,1,12,10,1,3,FRANKIE,115,6,ARRAN,BRENT,JUNAID,CLIVE,114,16,0,0,1,3.69490189999487,0.0610709999964456,0,0,1,0.283933799997612,1
187,1,1,1,12,11,1,1,KIERAN,2882,5,MARTIN,XAVIER,"NATHAN",MONTEL,2744,57,1,NA,NA,1.54420789999858,0.360119400000258,0,1,2,1.07607520000602,2
188,1,1,1,12,12,1,4,KERRY,333,1,SIONED,MARIA,SASHA,ANNIE,333,389,1,NA,NA,3.18321149999974,0.800663699999859,1,0,2,0.949486000004981,2
189,1,1,1,12,13,1,4,CHANEL,116,14,TONICHA,ANIKA,FAITH,ALISON,116,181,1,NA,NA,2.18669400000363,0.0361549000008381,0,0,4,0.778080000003683,4
190,1,1,1,12,14,1,4,TONICHA,45,11,KERRY,JEMIMA,CELIA,TAYLA,44,129,0,1,0,3.51887169999827,0.843042799999239,1,0,1,0.2751786000008,1
191,1,1,1,12,15,1,2,SIONED,42,3,JEMIMA,ADELE,STELLA,FATIMA,42,153,1,NA,NA,3.69320190000144,0.97951589999866,3,0,2,0.893541600002209,2
192,1,1,1,12,16,1,5,BRENT,16,12,KIERAN,FRANKIE,BROOK,ORLANDO,16,18,1,NA,NA,3.06477910000103,0.849406799999997,2,0,1,0.959355800005142,1
193,1,1,2,2,1,1,3,ARONAS,44,8,AINSLEY,KAINE,MALIK,SANDEEP,44,25,1,NA,NA,3.26246209999954,0.741063499997836,2,0,NA,NA,3
194,1,1,2,2,2,1,1,CIARAN,278,11,HECTOR,REUBEN,FRASER,LORENZO,278,36,0,0,1,5.03432379999867,0.56937150000158,1,0,NA,NA,1
195,1,1,2,2,3,1,8,PALOMA,38,2,LAUREN,ELLIE,CALLIE,ADINA,37,20,1,NA,NA,3.65271840000059,1.59498780000285,3,1,NA,NA,3
196,1,1,2,2,4,1,7,DILLON,174,16,KAINE,AINSLEY,FRANCIS,LUCIEN,172,16,NA,NA,NA,NA,NA,3,0,NA,NA,1
197,1,1,2,2,5,1,8,JAZMIN,62,6,HAYLEY,TALIA,MAXINE,KAYLEY,62,127,1,NA,NA,3.71270829999412,0.372886299999664,0,1,NA,NA,1
198,1,1,2,2,6,1,7,HAMZA,220,7,DILLON,HECTOR,ANTONY,ARCHIE,217,169,1,NA,NA,3.58120150000468,0.380921199997829,0,1,NA,NA,3
199,1,1,2,2,7,1,6,TALIA,86,5,ELLIE,JAZMIN,HALIMA,FFION,85,201,0,0,1,3.17527559999871,0.464189199999964,1,0,NA,NA,2
200,1,1,2,2,8,1,4,BONNIE,95,3,JAZMIN,PALOMA,WHITNEY,MARNIE,95,41,1,NA,NA,4.20424420000199,1.37138019999838,2,0,NA,NA,4
201,1,1,2,2,9,1,1,HECTOR,29,10,CIARAN,ARONAS,MIKEY,QUINN,29,10,0,1,0,4.06676629999856,0.0489063999993959,0,0,NA,NA,1
202,1,1,2,2,10,1,5,KAINE,79,13,REUBEN,HAMZA,TERRY,SHELDON,79,52,0,0,1,6.13607140000386,0.634120099995926,2,0,NA,NA,1
203,1,1,2,2,11,1,3,AINSLEY,43,15,ARONAS,DILLON,LAURIE,VINCENT,43,117,0,1,0,7.35787470000651,2.05287449999742,3,0,NA,NA,3
204,1,1,2,2,12,1,8,HAYLEY,1088,12,PRIYA,BONNIE,HARRIET,MARYAM,1046,176,0,0,1,4.81954920000135,1.34798050000245,1,0,NA,NA,1
205,1,1,2,2,13,1,4,LAUREN,6299,1,TALIA,PRIYA,HANNAH,EBONY,5916,200,1,NA,NA,4.64772320000338,0.917805100005353,1,0,NA,NA,2
206,1,1,2,2,14,1,2,PRIYA,101,4,PALOMA,LAUREN,KIRBY,DARCY,100,107,1,NA,NA,3.62957299999835,0.0376430999967852,0,0,NA,NA,3
207,1,1,2,2,15,1,8,ELLIE,1900,14,BONNIE,HAYLEY,"NATASHA",ROBYN,1751,683,0,1,0,6.23848930000531,0.646353499992983,1,0,NA,NA,1
208,1,1,2,2,16,1,3,REUBEN,160,9,HAMZA,CIARAN,JARED,LEONARD,158,39,1,NA,NA,5.44152150000446,1.74133360000269,1,2,NA,NA,1
209,1,1,2,7,1,1,1,HAIDER,51,3,ALBERT,AYDEN,VICTOR,LEWIS,51,3569,0,0,1,6.06714650000504,2.25295700000424,3,0,NA,NA,1
210,1,1,2,7,2,1,4,BETHANY,4271,1,CHARIS,LAILA,GEORGIA,STORM,3723,36,1,NA,NA,4.78586080000241,2.04224049999902,3,0,NA,NA,2
211,1,1,2,7,3,1,1,ALBERT,110,13,AYDEN,FREDDIE,BAILEY,CHARLES,109,1738,0,1,0,4.45002089999616,0.908079400003771,0,1,NA,NA,1
212,1,1,2,7,4,1,8,LAILA,35,5,KRISTY,CARLY,PIPPA,TANYA,35,169,1,NA,NA,5.84929269999702,0.58505249999871,2,0,NA,NA,1
213,1,1,2,7,5,1,6,FARZANA,45,6,AYSHA,ROSANNA,LIANNE,TAMARA,45,397,1,NA,NA,4.96467139999731,0.381332599994494,1,0,NA,NA,2
214,1,1,2,7,6,1,8,BRONTE,59,12,BETHANY,AYSHA,FEARNE,LIBBY,143,191,1,NA,NA,4.39855910000188,1.10843240000395,3,0,NA,NA,3
215,1,1,2,7,7,1,4,KRISTY,39,4,ROSANNA,JOANNA,LUISA,RACHEL,39,2105,NA,NA,NA,NA,NA,1,2,NA,NA,1
216,1,1,2,7,8,1,7,AYDEN,27,14,HAIDER,HARRIS,NICKY,GLENN,27,100,0,0,1,3.99024899999495,2.02840599999763,1,0,NA,NA,1
217,1,1,2,7,9,1,5,FREDDIE,89,2,HARRIS,ALBERT,FRANK,GILES,86,47,0,1,0,5.6494118000046,1.62271909999981,2,0,NA,NA,1
218,1,1,2,7,10,1,8,CHARIS,52,9,JOANNA,FARZANA,LARISSA,SIMRAN,51,240,0,1,0,6.52931750000425,0.547891800000798,1,0,NA,NA,1
219,1,1,2,7,11,1,8,ROSANNA,99,11,REBECCA,CHARIS,DANNI,ABBIE,98,1297,1,NA,NA,5.51983289999771,0.82472240000061,0,1,NA,NA,3
220,1,1,2,7,12,1,2,REBECCA,5828,8,FARZANA,BRONTE,MEGAN,HEIDI,4948,193,1,NA,NA,3.22120119999454,1.15301460000046,3,0,NA,NA,4
221,1,1,2,7,13,1,6,CARLY,235,10,BRONTE,BETHANY,SADIE,SAVANNA,235,40,1,NA,NA,6.07891279999603,2.14146430000255,1,1,NA,NA,2
222,1,1,2,7,14,1,2,AYSHA,94,7,LAILA,REBECCA,KEIRA,DOROTHY,94,18,1,NA,NA,6.09264699999767,1.39974689999508,3,0,NA,NA,3
223,1,1,2,7,15,1,3,HARRIS,42,15,FREDDIE,HAIDER,MICAH,TERRY,42,79,0,0,1,4.18085500000598,0.0578297000029124,0,0,NA,NA,1
224,1,1,2,7,16,1,6,JOANNA,374,16,CARLY,KRISTY,ALISHA,TIANA,363,33,1,NA,NA,2.61281529999542,0.550876000001153,1,0,NA,NA,2
225,1,1,2,11,1,1,3,CLAYTON,55,10,DOMINIC,RIKESH,TYRELL,BILAL,55,144,1,NA,NA,2.48346460000175,0.559207700003753,0,1,NA,NA,3
226,1,1,2,11,2,1,8,MELISSA,1282,9,KIRSTY,MATILDA,GEMMA,KEIRA,1261,94,1,NA,NA,6.25906430000032,2.27683500000421,4,1,NA,NA,2
227,1,1,2,11,3,1,3,RIKESH,18,11,TREVOR,STEWART,ROLAND,VINAY,18,26,0,0,1,6.89784740000323,1.52196910000202,2,1,NA,NA,1
228,1,1,2,11,4,1,7,TREVOR,21,14,STEWART,ARJAN,CARTER,VISHAL,20,47,1,NA,NA,5.7593893000012,2.08143579999887,4,1,NA,NA,3
229,1,1,2,11,5,1,6,MATILDA,200,3,AALIYAH,KIRSTY,SHANICE,PIPPA,200,35,0,1,0,5.56505770000513,3.2943152999942,2,2,NA,NA,1
230,1,1,2,11,6,1,2,AALIYAH,111,8,TILLY,MELISSA,ANISHA,KARINA,111,65,1,NA,NA,2.75557929999923,0.708307000000787,1,0,NA,NA,2
231,1,1,2,11,7,1,5,ETHAN,604,1,RIKESH,TREVOR,ZACHARY,LLOYD,574,299,0,1,0,4.85537969999859,0.0666402999995626,0,0,NA,NA,1
232,1,1,2,11,8,1,3,STEWART,64,16,RUPERT,ETHAN,KELVIN,DAMIEN,63,90,1,NA,NA,6.76831279999897,1.28772809999646,2,1,NA,NA,1
233,1,1,2,11,9,1,4,KIRSTY,1202,5,MELISSA,SOPHIE,JASMINE,KELSEY,1145,438,1,NA,NA,4.23667160000332,0.650216200003342,2,0,NA,NA,2
234,1,1,2,11,10,1,1,ARJAN,19,2,FABIAN,MURRAY,AUSTEN,JARVIS,19,37,NA,NA,NA,NA,NA,0,1,NA,NA,1
235,1,1,2,11,11,1,7,RUPERT,71,15,ARJAN,FABIAN,GRAHAM,CASSIUS,70,9,NA,NA,NA,NA,NA,2,0,NA,NA,1
236,1,1,2,11,12,1,6,SOPHIE,7087,7,MATILDA,TILLY,CHLOE,FIONA,6824,278,0,1,0,3.75159269999858,0.0428812000027392,0,0,NA,NA,2
237,1,1,2,11,13,1,3,FABIAN,61,12,ETHAN,RUPERT,HAROON,MASON,61,320,0,1,0,4.79314439999871,1.11900500000047,1,0,NA,NA,1
238,1,1,2,11,14,1,2,TILLY,105,6,SOPHIE,AALIYAH,ATLANTA,DANNI,103,98,0,0,1,6.10656100000051,2.39615970000159,0,1,NA,NA,1
239,1,1,2,11,15,1,5,MURRAY,38,13,CLAYTON,DOMINIC,ALLAN,ROGER,37,22,0,0,1,5.39548520000244,1.11530340000172,1,0,NA,NA,1
240,1,1,2,11,16,1,3,DOMINIC,1519,4,MURRAY,CLAYTON,BRANDON,DOUGLAS,1337,142,1,NA,NA,4.05202120000467,2.00234009999986,3,0,NA,NA,3
241,1,1,2,3,1,1,7,MARIO,20,10,MAXIM,MARCO,VIVEK,JIMMY,20,80,1,NA,NA,5.86265160000039,3.11074590000499,1,2,NA,NA,2
242,1,1,2,3,2,1,3,MAXIM,36,11,MARIO,TYRONE,TARIQ,RALPH,36,47,1,NA,NA,4.71885539999494,1.76281610000296,2,0,NA,NA,2
243,1,1,2,3,3,1,6,HUMAIRA,46,16,LIBERTY,CATRIN,JAIME,SYDNEY,46,98,1,NA,NA,7.09902650000004,3.14686419999634,0,1,NA,NA,1
244,1,1,2,3,4,1,2,LIBERTY,144,5,ELYSIA,JAYDE,HAZEL,SHELLEY,141,84,1,NA,NA,3.14386930000182,1.39573079999536,1,0,NA,NA,3
245,1,1,2,3,5,1,2,ELYSIA,72,3,MARIE,LIBERTY,HAFSA,HALIMA,72,85,1,NA,NA,7.35585070000525,3.70290109999769,3,0,NA,NA,3
246,1,1,2,3,6,1,5,ADRIAN,155,8,JOHNNY,DONALD,BLAKE,HENRY,154,1135,0,0,1,4.89483309999923,0.275401999999303,1,0,NA,NA,2
247,1,1,2,3,7,1,3,TYRONE,117,9,AWAIS,JOHNNY,VINCENT,FREDDY,117,25,1,NA,NA,3.50622399999702,1.23832530000072,0,1,NA,NA,4
248,1,1,2,3,8,1,3,MARCO,76,14,DONALD,MARIO,ISMAIL,FRANCIS,75,172,0,1,0,5.59397360000003,1.29530289999821,3,0,NA,NA,3
249,1,1,2,3,9,1,8,JAYDE,58,1,CATRIN,SUSAN,VICKY,CECILIA,58,27,1,NA,NA,6.12827680000191,1.39134229999763,3,0,NA,NA,1
250,1,1,2,3,10,1,6,JESSIE,194,15,JAYDE,ELYSIA,HEIDI,PORTIA,193,28,0,1,0,6.74298719999933,3.61450579999655,1,1,NA,NA,2
251,1,1,2,3,11,1,3,JOHNNY,32,7,TYRONE,ADRIAN,MILAN,AYRTON,32,37,1,NA,NA,6.20170510000025,3.1963781999948,4,1,NA,NA,2
252,1,1,2,3,12,1,1,AWAIS,50,12,MARCO,MAXIM,MARLEY,TUDOR,50,15,0,0,1,6.71973029999936,4.93800459999329,2,3,NA,NA,1
253,1,1,2,3,13,1,4,CATRIN,102,2,JESSIE,MARIE,LOREN,ISOBEL,102,522,1,NA,NA,2.71698159999505,0.474116299999878,1,0,NA,NA,3
254,1,1,2,3,14,1,8,SUSAN,82,6,HUMAIRA,JESSIE,PENNY,KEISHA,81,37,0,1,0,5.75548749999871,1.93251410000084,2,1,NA,NA,1
255,1,1,2,3,15,1,7,DONALD,23,13,ADRIAN,AWAIS,GERALD,CALLUM,23,4281,0,0,1,6.27598020000005,5.5557353999975,4,4,NA,NA,1
256,1,1,2,3,16,1,2,MARIE,129,4,SUSAN,HUMAIRA,TAYLA,MABEL,129,17,0,0,1,5.62832619999972,1.66399660000025,1,0,NA,NA,1
257,1,1,2,12,1,1,2,ANIKA,52,11,ADELE,CHANEL,ASHLEA,SAIRA,52,73,1,NA,NA,5.40493459999561,1.77968380000675,4,0,NA,NA,3
258,1,1,2,12,2,1,4,KERRY,333,10,TONICHA,JEMIMA,SASHA,ANNIE,333,389,0,0,1,4.27824339999643,1.33675559999392,1,0,NA,NA,2
259,1,1,2,12,3,1,3,FRANKIE,115,8,MARTIN,MALCOLM,JUNAID,CLIVE,114,16,0,1,0,6.02932770000189,2.52794670000003,0,1,NA,NA,1
260,1,1,2,12,4,1,1,KIERAN,2882,2,BRENT,ARRAN,"NATHAN",MONTEL,2744,57,0,1,0,7.10907069999666,2.81582109999727,4,2,NA,NA,2
261,1,1,2,12,5,1,6,MARIA,511,3,CHANEL,SIONED,STACEY,JORDANA,509,26,1,NA,NA,1.95282729999599,0.0600803999986965,0,0,NA,NA,4
262,1,1,2,12,6,1,2,SIONED,42,12,KERRY,ANIKA,STELLA,FATIMA,42,153,1,NA,NA,5.01656159999402,2.37581239999417,3,0,NA,NA,2
263,1,1,2,12,7,1,7,AHMAD,57,16,MALCOLM,FRANKIE,AKASH,TARAN,57,31,0,1,0,4.94618089999858,3.97230950000085,3,1,NA,NA,1
264,1,1,2,12,8,1,8,ADELE,144,1,MARIA,TONICHA,CONNIE,SASHA,144,333,0,1,0,5.01293299999816,1.36931650000042,2,0,NA,NA,1
265,1,1,2,12,9,1,4,CHANEL,116,14,ANIKA,KERRY,FAITH,ALISON,116,181,1,NA,NA,2.65511939999851,0.969484799999918,3,0,NA,NA,4
266,1,1,2,12,10,1,4,TONICHA,45,5,JEMIMA,ADELE,CELIA,TAYLA,44,129,0,1,0,6.18153580000217,5.30061260000366,1,1,NA,NA,1
267,1,1,2,12,11,1,3,MARTIN,435,4,ARRAN,BRENT,STUART,FINLAY,405,78,0,0,1,6.71590580000338,3.2295723999996,1,2,NA,NA,1
268,1,1,2,12,12,1,5,ARRAN,153,7,AHMAD,XAVIER,FELIX,BUSTER,149,33,0,1,0,6.00282699999661,2.2081846000001,2,0,NA,NA,1
269,1,1,2,12,13,1,5,MALCOLM,39,9,KIERAN,MARTIN,ADEEL,JUSTIN,38,182,0,0,1,6.43874219999998,2.32331659999909,1,0,NA,NA,1
270,1,1,2,12,14,1,6,JEMIMA,177,6,SIONED,MARIA,MARYAM,ANGELA,176,87,1,NA,NA,4.61988199999905,0.974473100002797,0,1,NA,NA,1
271,1,1,2,12,15,1,5,BRENT,16,13,XAVIER,KIERAN,BROOK,ORLANDO,16,18,1,NA,NA,4.23510010000609,1.11454830000002,2,1,NA,NA,1
272,1,1,2,12,16,1,5,XAVIER,58,15,FRANKIE,AHMAD,ADNAN,STUART,57,405,1,NA,NA,5.16977630000474,2.09924979999778,0,1,NA,NA,1
273,1,1,2,6,1,1,1,TRAVIS,205,1,CHESTER,WESLEY,LUCAS,ANTONY,202,217,0,0,1,4.64019589999953,1.73615129999962,1,1,NA,NA,1
274,1,1,2,6,2,1,7,LEYTON,16,2,TRAVIS,BARNEY,LUCIEN,LUCAS,16,202,0,1,0,4.92838699999993,1.06156159999955,3,0,NA,NA,1
275,1,1,2,6,3,1,4,LOUISE,1309,9,KAREN,SUMMER,ABBIE,TRACY,1297,34,1,NA,NA,3.43899989999773,0.0633067999951891,0,0,NA,NA,4
276,1,1,2,6,4,1,3,MITCHEL,54,8,FAHIM,LEYTON,JACQUES,OLIVIER,53,10,1,NA,NA,4.2734610999978,1.84396830000333,1,0,NA,NA,1
277,1,1,2,6,5,1,8,KAREN,76,15,ELISE,AILISH,KYLIE,SAMINA,76,41,0,1,0,6.76364720000129,0.801179200003389,1,0,NA,NA,2
278,1,1,2,6,6,1,6,AILISH,38,14,LETITIA,KAREN,JAYNE,CONNIE,38,144,0,0,1,5.34430779999821,1.39168990000326,4,0,NA,NA,2
279,1,1,2,6,7,1,6,LETITIA,44,16,MADDIE,ELENA,MAISY,LEANNA,44,40,0,1,0,5.06034409999847,0.0408868000013172,0,0,NA,NA,2
280,1,1,2,6,8,1,7,BARNEY,37,5,WESLEY,MITCHEL,CARLOS,ALLAN,37,37,0,0,1,3.73290040000575,0.0401258000056259,0,0,NA,NA,1
281,1,1,2,6,9,1,4,SUMMER,203,13,LOUISE,MARGOT,DEANNA,ANDREA,202,74,1,NA,NA,3.47669129999849,3.08905599999707,2,2,NA,NA,3
282,1,1,2,6,10,1,5,FAHIM,24,7,MITCHEL,TRAVIS,JERRY,RAYMOND,24,78,0,0,1,6.76636999999755,2.04065459999401,2,1,NA,NA,3
283,1,1,2,6,11,1,8,ELISE,253,12,MARGOT,LETITIA,KATRINA,BECKY,251,146,NA,NA,NA,NA,NA,4,2,NA,NA,3
284,1,1,2,6,12,1,6,MADDIE,37,11,AILISH,ELISE,MIKAELA,CAMILLA,37,62,0,1,0,5.33743820000382,3.7085836000042,1,0,NA,NA,1
285,1,1,2,6,13,1,1,CHESTER,24,10,BARNEY,FAHIM,DERRY,BARRY,24,45,0,1,0,7.49700440000015,6.2884161999973,2,1,NA,NA,2
286,1,1,2,6,14,1,4,MARGOT,293,6,ELENA,MADDIE,HENNA,MAISIE,82,335,1,NA,NA,3.43418850000307,0.938929399999324,2,0,NA,NA,1
287,1,1,2,6,15,1,2,ELENA,213,3,SUMMER,LOUISE,VANESSA,ROISIN,213,134,NA,NA,NA,NA,NA,4,1,NA,NA,2
288,1,1,2,6,16,1,7,WESLEY,185,4,LEYTON,CHESTER,JUSTIN,MAXWELL,182,160,0,0,1,7.30743490000168,2.83383590000449,3,1,NA,NA,2
289,1,1,2,9,1,1,7,HASAN,123,8,WILLIAM,CHASE,FERGUS,KEVIN,120,250,1,NA,NA,3.49448539999867,0.0323740000021644,0,0,NA,NA,1
290,1,1,2,9,2,1,6,"NATALIE",1393,2,CARLA,BRYONY,JODIE,EMILY,1354,6415,0,1,0,4.17692730000272,1.05565249999927,3,0,NA,NA,1
291,1,1,2,9,3,1,4,PAIGE,2052,4,BRYONY,ELISHA,MOLLY,FLORA,2026,101,1,NA,NA,4.3686916000006,1.62339369999972,1,0,NA,NA,1
292,1,1,2,9,4,1,6,ELISHA,240,1,PAIGE,SEREN,SIMRAN,KATHRYN,240,635,1,NA,NA,7.65419119999569,4.11561420000362,1,1,NA,NA,1
293,1,1,2,9,5,1,7,DAFYDD,84,3,DONOVAN,HASAN,ROBSON,RICKY,84,242,1,NA,NA,3.2567538000003,0.911418299998331,0,1,NA,NA,3
294,1,1,2,9,6,1,2,CARLA,230,11,SEREN,PAIGE,KIRSTEN,AOIFE,225,71,1,NA,NA,3.88867040000332,0.0562347000013688,0,0,NA,NA,1
295,1,1,2,9,7,1,1,ANDRE,167,16,PERRY,DONOVAN,JESSE,MILES,161,223,1,NA,NA,7.31924789999903,5.38245070000266,3,1,NA,NA,4
296,1,1,2,9,8,1,3,EMILIO,25,5,HASAN,PERRY,FREDDY,JUNAID,25,114,0,0,1,4.91899779999949,0.0421021000001929,0,0,NA,NA,2
297,1,1,2,9,9,1,5,WILLIAM,4269,10,LESLIE,ANDRE,MICHAEL,AKASH,4187,57,1,NA,NA,4.0765229000026,0.960757500004547,1,1,NA,NA,3
298,1,1,2,9,10,1,7,DONOVAN,24,12,ANDRE,LESLIE,EAMON,KENNY,24,33,1,NA,NA,5.05222459999641,0.661589799994545,2,0,NA,NA,3
299,1,1,2,9,11,1,8,LACEY,85,7,"NATALIE",CARLA,SHELLEY,ROSIE,84,879,1,NA,NA,4.66719010000088,1.61321820000012,1,2,NA,NA,2
300,1,1,2,9,12,1,1,CHASE,17,6,DAFYDD,EMILIO,CHRIS,FELIX,17,149,0,1,0,5.54772019999655,3.16192080000474,3,1,NA,NA,1
301,1,1,2,9,13,1,2,BRYONY,362,15,LACEY,"NATALIE",ELOISE,HAFSA,351,72,1,NA,NA,2.54469399999653,1.27875630000199,1,0,NA,NA,3
302,1,1,2,9,14,1,4,SEREN,46,9,ELISHA,LACEY,SHARON,HARRIET,46,1046,1,NA,NA,4.58426280000276,0.933320000003732,2,0,NA,NA,4
303,1,1,2,9,15,1,7,PERRY,139,14,CHASE,DAFYDD,DAMON,LEROY,136,17,1,NA,NA,4.52614989999711,1.74918069999694,2,0,NA,NA,3
304,1,1,2,9,16,1,1,LESLIE,31,13,EMILIO,WILLIAM,NIGEL,GERAINT,31,46,0,0,1,3.63294860000315,0.0382987000048161,0,0,NA,NA,1
305,1,1,2,5,1,1,1,JONAS,21,12,ABRAHAM,GERARD,RONALD,MILAN,21,32,0,1,0,4.33460080000077,1.44890499999747,3,1,NA,NA,1
306,1,1,2,5,2,1,5,SANJAY,29,13,GERARD,PIERCE,DEVANTE,TERENCE,29,58,1,NA,NA,4.83678570000484,0.0435897000061232,0,0,NA,NA,1
307,1,1,2,5,3,1,8,ALICE,2357,4,MISHA,NIKKI,RACHEL,BRIDIE,2105,76,1,NA,NA,5.16133989999798,2.92760750000161,4,1,NA,NA,4
308,1,1,2,5,4,1,4,AMIRA,33,8,MANISHA,ALICE,TIANA,CARMEN,33,60,0,0,1,7.19266350000544,3.37642680000135,4,1,NA,NA,3
309,1,1,2,5,5,1,6,SELINA,158,9,ALICE,MISHA,SIMONE,"NATASHA",158,1751,1,NA,NA,7.09320589999697,3.59619859999657,1,0,NA,NA,1
310,1,1,2,5,6,1,4,MANISHA,73,6,SELINA,AMIRA,SAIRA,MAEVE,73,24,1,NA,NA,3.55880059999618,0.0375378999960958,0,0,NA,NA,3
311,1,1,2,5,7,1,8,NIKKI,102,2,AMIRA,AISLING,FLORA,ASHLEA,101,52,1,NA,NA,3.7272099000038,0.0430766000063159,0,0,NA,NA,2
312,1,1,2,5,8,1,2,MISHA,43,11,AISLING,SELINA,ALINA,SHANA,42,42,1,NA,NA,5.55271549999452,2.15727649999462,3,0,NA,NA,3
313,1,1,2,5,9,1,1,FARHAN,37,10,JONAS,PAOLO,JARVIS,MICHAEL,37,4187,0,0,1,4.60446629999933,0.059880200002226,0,0,NA,NA,1
314,1,1,2,5,10,1,7,PIERCE,61,7,PAOLO,HOWARD,SOLOMON,AKEEM,60,27,1,NA,NA,4.4376556999996,2.07927360000031,3,1,NA,NA,1
315,1,1,2,5,11,1,3,HOWARD,47,3,FARHAN,RILEY,RALPH,JACQUES,47,53,0,0,1,3.34765160000097,0.574710699998832,0,1,NA,NA,1
316,1,1,2,5,12,1,5,ABRAHAM,40,15,HOWARD,JONAS,CARLTON,JESSE,40,161,0,0,1,5.0980555999995,1.41301430000021,1,0,NA,NA,3
317,1,1,2,5,13,1,6,AISLING,70,5,NIKKI,MANISHA,DONNA,CELINE,69,113,0,1,0,6.1157422000033,1.6778376000002,0,1,NA,NA,2
318,1,1,2,5,14,1,5,RILEY,32,1,SANJAY,ABRAHAM,WASIM,TYRELL,32,55,0,0,1,3.63115950000065,1.09276040000259,1,0,NA,NA,1
319,1,1,2,5,15,1,7,PAOLO,16,14,RILEY,SANJAY,TERRELL,MIKEY,16,29,0,0,1,5.12207510000007,1.50724850000552,0,1,NA,NA,1
320,1,1,2,5,16,1,5,GERARD,38,16,PIERCE,FARHAN,GETHIN,ARTHUR,38,129,1,NA,NA,3.61824479999632,1.20883820000017,2,0,NA,NA,4
321,1,1,2,1,1,1,6,AMBER,1422,14,JULIET,JESSICA,GRACE,FAITH,1421,116,0,0,1,4.64733680000063,0.0388212999969255,0,0,NA,NA,2
322,1,1,2,1,2,1,5,JEROME,135,16,CONRAD,EDWIN,ARTHUR,DAYLE,129,30,0,0,1,4.14716210000188,1.65127639999992,0,1,NA,NA,1
323,1,1,2,1,3,1,5,CONRAD,39,5,LYNDON,TRISTAN,LEONARD,BRADY,39,32,1,NA,NA,5.60262320000038,2.4389089000033,4,2,NA,NA,2
324,1,1,2,1,4,1,3,FLYNN,20,11,TRISTAN,LYNDON,GRAEME,JASON,20,1001,0,1,0,4.66941249999945,2.42725480000081,1,0,NA,NA,2
325,1,1,2,1,5,1,8,CLARE,216,13,CHANICE,ANTONIA,CASEY,BROOKE,215,269,1,NA,NA,4.05068879999453,1.07460680000077,3,0,NA,NA,2
326,1,1,2,1,6,1,2,AMINA,151,15,ANTONIA,CARRIE,ELIZA,CANDICE,147,66,1,NA,NA,2.47917150000285,0.73696370000107,1,0,NA,NA,4
327,1,1,2,1,7,1,4,JULIET,57,3,CLARE,AMINA,KAITLIN,KEELEY,57,209,1,NA,NA,1.40728170000511,0.330180900004052,0,1,NA,NA,4
328,1,1,2,1,8,1,8,CARRIE,97,2,AMINA,AMBER,EMILIE,HELENA,96,308,1,NA,NA,4.98240929999884,0.949886700000206,2,0,NA,NA,2
329,1,1,2,1,9,1,2,CHANICE,37,6,AMBER,JULIET,KEISHA,FARHANA,37,46,0,1,0,5.044266900004,0.0699614000041038,0,0,NA,NA,2
330,1,1,2,1,10,1,1,EDWIN,48,9,JEROME,JACOB,GILES,JARED,47,158,0,1,0,4.20132450000528,0.0361791999966954,0,0,NA,NA,3
331,1,1,2,1,11,1,6,JESSICA,6711,8,CARRIE,CLARE,EMILY,PENNY,6415,81,1,NA,NA,3.104720000003,0.541004200000316,0,1,NA,NA,4
332,1,1,2,1,12,1,7,ASHLEY,1874,1,JACOB,CONRAD,REECE,EAMON,1811,24,1,NA,NA,4.20189329999994,2.08298849999846,2,0,NA,NA,4
333,1,1,2,1,13,1,5,TRISTAN,250,12,FLYNN,ASHLEY,ANGUS,ZACHARY,247,574,1,NA,NA,2.47742819999985,0.78289699999732,2,0,NA,NA,4
334,1,1,2,1,14,1,5,LYNDON,37,4,ASHLEY,JEROME,SOREN,TRENT,37,10,0,1,0,4.80715729999793,1.77194259999669,2,0,NA,NA,3
335,1,1,2,1,15,1,4,ANTONIA,234,10,JESSICA,CHANICE,ESTHER,WILLOW,231,1536,1,NA,NA,2.01112089999515,1.02310749999742,0,1,NA,NA,4
336,1,1,2,1,16,1,1,JACOB,2249,7,EDWIN,FLYNN,CHARLIE,GETHIN,1912,38,1,NA,NA,3.00511700000061,0.950928500002192,0,1,NA,NA,4
337,1,1,2,8,1,1,1,LORCAN,17,11,MOSES,ARNOLD,MARVIN,GARRY,17,29,1,NA,NA,3.52319700000226,2.11517449999519,0,1,NA,NA,3
338,1,1,2,8,2,1,2,SABAH,75,15,SORCHA,YASMIN,ANDREA,EVELYN,74,80,0,1,0,5.31858350000402,0.229117000002589,1,0,NA,NA,1
339,1,1,2,8,3,1,5,PHILIP,481,7,ELLIOT,MOSES,ISAAC,JULIEN,480,14,0,1,0,3.25073039999552,0.624114699996426,1,0,NA,NA,2
340,1,1,2,8,4,1,3,ELLIOT,919,9,ARJUN,PHILIP,BILLY,AARON,914,2511,1,NA,NA,3.81226179999794,1.37475009999616,2,0,NA,NA,2
341,1,1,2,8,5,1,7,ARNOLD,18,6,LORCAN,ARJUN,CLAUDE,AHMED,18,206,0,1,0,4.16239580000547,0.804233900002146,0,1,NA,NA,1
342,1,1,2,8,6,1,4,LEILA,83,1,YASMIN,MIRANDA,SHIVANI,MEGAN,83,4948,0,0,1,5.35986479999701,1.77456730000267,2,1,NA,NA,2
343,1,1,2,8,7,1,1,DANNY,565,16,PHILIP,LORCAN,COREY,BILLY,527,914,0,1,0,4.8796380000058,3.19203479999851,3,1,NA,NA,1
344,1,1,2,8,8,1,8,ALANIS,31,8,MIRANDA,LEONA,BRIANNA,PHOEBE,31,910,0,0,1,7.15193960000033,2.89596330000495,2,3,NA,NA,1
345,1,1,2,8,9,1,6,MIRANDA,113,4,"NAOMI",ALANIS,TEGAN,DONNA,112,69,0,1,0,6.07190879999689,2.04996550000214,1,1,NA,NA,2
346,1,1,2,8,10,1,8,DIONNE,89,10,SABAH,SORCHA,LILLY,KIRBY,89,100,1,NA,NA,4.61171710000053,1.11316649999935,1,0,NA,NA,1
347,1,1,2,8,11,1,2,LEONA,57,5,DIONNE,LEILA,SACHA,DEANNA,57,202,0,0,1,5.70804189999762,2.2218445000035,0,1,NA,NA,1
348,1,1,2,8,12,1,5,ARJUN,72,12,DANNY,ELLIOT,PIERS,CURTIS,71,757,0,1,0,7.71940419999737,3.58951770000567,2,1,NA,NA,2
349,1,1,2,8,13,1,7,MOSES,29,14,ARNOLD,DANNY,BUSTER,PIERS,33,71,1,NA,NA,3.47535749999952,1.0885694000026,2,1,NA,NA,2
350,1,1,2,8,14,1,4,"NAOMI",766,2,LEILA,DIONNE,RACHAEL,KAYLA,721,48,0,1,0,4.02946489999886,2.17696250000154,0,1,NA,NA,1
351,1,1,2,8,15,1,6,YASMIN,661,3,ALANIS,SABAH,KATHRYN,VANESSA,635,213,1,NA,NA,3.39924780000001,1.38799440000003,3,0,NA,NA,4
352,1,1,2,8,16,1,8,SORCHA,34,13,LEONA,"NAOMI",TRACY,FAIZA,34,42,1,NA,NA,5.99512970000069,3.51352770000085,2,1,NA,NA,1
353,1,1,2,4,1,1,2,RIANNA,90,15,MILLIE,ISABEL,SADIA,ELEANOR,90,2555,0,0,1,3.80006790000334,0.722406499997305,1,0,NA,NA,1
354,1,1,2,4,2,1,3,IBRAHIM,129,1,BOBBY,PARKER,SONNY,BLAKE,127,154,1,NA,NA,3.58953970000584,1.5207081999979,1,0,NA,NA,3
355,1,1,2,4,3,1,6,MAIYA,48,14,VERITY,MILLIE,CANDICE,BARBARA,66,26,0,0,1,4.58409599999868,2.20813099999941,1,0,NA,NA,1
356,1,1,2,4,4,1,1,SAMUEL,6161,4,TOMMY,AUSTIN,JORDAN,OMARI,5750,30,0,0,1,3.87633389999974,0.41930250000587,0,1,NA,NA,1
357,1,1,2,4,5,1,3,BRODIE,46,10,PARKER,TOMMY,BYRON,ZAYNE,46,41,1,NA,NA,3.91242240000429,0.280918099997507,0,1,NA,NA,1
358,1,1,2,4,6,1,4,SHARNA,111,16,BROGAN,MAIYA,CLARA,SIMONE,107,158,1,NA,NA,5.18402320000314,2.84866260000126,2,0,NA,NA,3
359,1,1,2,4,7,1,1,PARKER,407,9,AUSTIN,IBRAHIM,LANCE,ISAAC,35,480,0,0,1,5.09093209999992,0.406382900000608,1,0,NA,NA,1
360,1,1,2,4,8,1,8,BROGAN,165,8,RIANNA,SHARNA,"NADINE",LEIGH,165,125,0,1,0,3.80112499999814,0.0302931999976863,0,0,NA,NA,1
361,1,1,2,4,9,1,1,CYRUS,29,5,SAMUEL,ALISTER,DARNELL,FABIO,29,28,0,1,0,4.83579260000261,1.84200640000199,0,1,NA,NA,1
362,1,1,2,4,10,1,2,ISABEL,455,6,MAIYA,VERITY,KELSEY,SACHA,438,57,0,0,1,4.75913089999813,1.11050290000276,3,0,NA,NA,1
363,1,1,2,4,11,1,7,ALISTER,30,2,BRODIE,CYRUS,DAYLE,BYRON,30,46,0,1,0,3.64547070000117,1.06100380000134,1,0,NA,NA,1
364,1,1,2,4,12,1,7,AUSTIN,65,7,ALISTER,SAMUEL,ANDREAS,KILLIAN,64,10,0,0,1,4.494746700002,1.34904449999885,3,0,NA,NA,1
365,1,1,2,4,13,1,3,TOMMY,247,3,CYRUS,BOBBY,RICKY,KESTER,242,16,1,NA,NA,5.31354180000199,1.65252380000311,3,0,NA,NA,1
366,1,1,2,4,14,1,2,VERITY,114,12,SHARNA,BROGAN,CELINE,MIKAELA,113,37,1,NA,NA,2.3752295000013,1.13252369999827,0,1,NA,NA,4
367,1,1,2,4,15,1,4,MILLIE,324,13,ISABEL,RIANNA,SHAUNA,CERYS,316,92,0,0,1,5.28496910000104,1.61782870000025,2,1,NA,NA,2
368,1,1,2,4,16,1,5,BOBBY,126,11,IBRAHIM,BRODIE,SPENCER,CHRIS,124,17,1,NA,NA,5.43601379999745,1.21631419999903,0,1,NA,NA,3
369,1,1,2,10,1,1,1,KEATON,41,1,EDDIE,NELSON,ZAYNE,CARLOS,41,37,1,NA,NA,3.61811630000011,0.226194299997587,1,0,NA,NA,1
370,1,1,2,10,2,1,4,PAISLEY,40,10,AIMEE,NIAMH,SAVANNA,HANNAH,40,5916,1,NA,NA,4.0319890000028,1.87224490000517,0,1,NA,NA,2
371,1,1,2,10,3,1,6,JENNA,289,7,NIAMH,ZAINAB,"NADIA",BRIDGET,285,56,0,0,1,5.47483880000073,2.91250859999855,1,2,NA,NA,1
372,1,1,2,10,4,1,2,SAFIA,41,5,AUTUMN,AIMEE,SAMINA,CLARA,41,107,0,0,1,4.77718489999825,2.32120580000628,1,0,NA,NA,1
373,1,1,2,10,5,1,5,HYWEL,28,6,JAMIE,EDDIE,AKEEM,BRADLEY,27,2557,0,1,0,2.9777236000009,0.0388241000036942,0,0,NA,NA,1
374,1,1,2,10,6,1,7,ANTON,76,16,HYWEL,JAMIE,COLIN,SHANE,76,846,1,NA,NA,3.30793770000309,0.575500000006286,0,1,NA,NA,4
375,1,1,2,10,7,1,4,NIAMH,381,12,PAISLEY,SHANNEN,ANNABEL,ATLANTA,380,103,0,0,1,4.79919479999808,1.50988109999889,2,1,NA,NA,1
376,1,1,2,10,8,1,1,CARWYN,40,3,ANTON,QASIM,DEREK,BERNARD,40,23,0,0,1,4.31020459999854,1.06990779999614,0,1,NA,NA,1
377,1,1,2,10,9,1,2,ZAINAB,154,8,JENNA,PAISLEY,FATIMA,HONOR,153,43,0,1,0,3.8805124999999,0.405806500006292,0,1,NA,NA,1
378,1,1,2,10,10,1,6,SHANNEN,51,14,ZAINAB,AUTUMN,LYNDSEY,ZAHRA,50,106,0,0,1,3.96306639999966,0.0634842999934335,0,0,NA,NA,1
379,1,1,2,10,11,1,8,AIMEE,876,2,SAFIA,JENNA,DAISY,TEGAN,828,112,1,NA,NA,3.22197790000064,0.258778999996139,0,1,NA,NA,3
380,1,1,2,10,12,1,2,AUTUMN,80,4,SHANNEN,SAFIA,EVELYN,ROSALYN,80,15,1,NA,NA,3.21000120000099,0.811710900001344,0,1,NA,NA,1
381,1,1,2,10,13,1,7,JAMIE,2688,9,KEATON,HYWEL,ANDREW,DAMON,2676,136,0,0,1,3.47802439999941,0.512916100000439,1,0,NA,NA,1
382,1,1,2,10,14,1,5,QASIM,73,13,CARWYN,ANTON,REISS,EDGAR,73,13,1,NA,NA,2.16700299999502,0.491641299995536,0,1,NA,NA,3
383,1,1,2,10,15,1,1,EDDIE,34,15,NELSON,KEATON,RISHI,RONALD,34,21,1,NA,NA,3.71094889999949,0.937183800000639,3,0,NA,NA,4
384,1,1,2,10,16,1,3,NELSON,17,11,QASIM,CARWYN,OAKLEY,BRANDON,17,1337,1,NA,NA,2.73085919999721,0.703639599996677,0,1,NA,NA,4
385,1,2,1,1,1,0,5,ROBERT,2644,11,LOGAN,ROSHAN,BRADLEY,SOREN,2557,37,0,0,1,4.02985800000897,0.0381046999973478,0,0,1,0.475569600006565,1
386,1,2,1,1,2,0,1,MARLON,26,6,JULIAN,PETER,VINAY,JORDAN,26,5750,1,NA,NA,1.83284009998897,0.0361266999971122,0,0,3,0.733301999993273,3
387,1,2,1,1,3,0,6,ELSPETH,42,8,NEELAM,BELINDA,FAIZA,CHRISTY,42,31,1,NA,NA,2.46583450000617,0.764104500005487,2,0,4,1.03013199999987,4
388,1,2,1,1,4,0,5,PETER,1128,5,HARVEY,ROBERT,STEPHEN,OAKLEY,1122,17,1,NA,NA,2.2404177999997,0.0432708000007551,0,0,2,1.17572289999225,2
389,1,2,1,1,5,0,5,HARVEY,401,7,ROBERT,NIALL,GARETH,COLTON,373,9,0,1,0,3.03246630000649,1.01553040000726,0,1,1,0.361116700005368,1
390,1,2,1,1,6,0,7,ROSHAN,32,3,MARLON,JULIAN,JEFFREY,MARLEY,31,50,0,0,1,3.83001569999033,0.0377002000022912,0,0,1,0.304993400000967,1
391,1,2,1,1,7,0,5,JULIAN,102,12,NIALL,LOGAN,GLENN,DANTE,100,11,0,1,0,3.68583499999659,0.0490872000082163,0,0,1,0.523526299992227,1
392,1,2,1,1,8,0,4,NEELAM,37,15,ROSHNI,ELSPETH,RABIA,ALINA,37,42,1,NA,NA,7.86091850000957,6.45418520001112,2,1,2,0.681223699997645,2
393,1,2,1,1,9,0,2,LILIAN,40,10,SASKIA,"NAFEESA",MELODY,PETRA,40,35,1,NA,NA,4.35249710000062,1.57670099999814,0,1,1,0.647035500005586,1
394,1,2,1,1,10,0,8,SASKIA,171,4,BELINDA,ROSHNI,ALANA,PAULINE,170,15,1,NA,NA,5.38635509999585,1.09534660000645,1,2,1,0.386834100005217,1
395,1,2,1,1,11,0,1,NIALL,462,16,ROSHAN,MARLON,ELLIS,ASHTON,443,74,0,1,0,2.75182330000098,0.384808399991016,1,0,1,0.576714700000593,1
396,1,2,1,1,12,0,2,"NAFEESA",38,2,CHELSEA,LILIAN,"NAZIA",AMELIA,38,929,1,NA,NA,3.32046000000264,1.59364570000616,0,1,2,0.57456269999966,2
397,1,2,1,1,13,0,8,ROSHNI,37,1,LILIAN,NEELAM,STORM,JOLENE,36,25,1,NA,NA,5.04075749999902,2.1323984000046,2,0,2,0.818218700005673,2
398,1,2,1,1,14,0,4,CHELSEA,1735,9,ELSPETH,SASKIA,NICOLE,STELLA,1679,42,1,NA,NA,2.12705070000084,0.796156399999745,2,0,4,0.749476300014067,4
399,1,2,1,1,15,0,6,BELINDA,43,13,"NAFEESA",CHELSEA,DANIELA,CELIA,43,44,1,NA,NA,2.46208749999641,0.0421950000018114,0,0,3,0.868084500005352,3
400,1,2,1,1,16,0,3,LOGAN,111,14,PETER,HARVEY,RUSSELL,GRAEME,111,20,0,1,0,4.1048609999998,0.0391526999883354,0,0,1,0.283014699991327,1
401,1,2,1,2,1,0,7,ELIJAH,78,12,DUNCAN,GRANT,FINLAY,ASTON,78,51,1,NA,NA,2.32523689999653,0.810393299994757,1,0,4,0.883044300004258,4
402,1,2,1,2,2,0,7,ALFRED,142,13,GEORGE,DUNCAN,DOUGLAS,ALESSIO,142,12,1,NA,NA,4.18864450001274,0.967632700005197,0,1,2,0.577833799994551,2
403,1,2,1,2,3,0,2,ESTELLE,36,16,POLLY,INDIA,PETRA,DEBORAH,35,118,0,0,1,3.80554349999875,1.14707590000762,2,0,1,0.331590199988568,1
404,1,2,1,2,4,0,8,KHADIJA,46,10,AMARA,POLLY,SANAH,ROWENA,46,41,0,1,0,4.19743549999839,1.73740949999774,1,0,1,0.732370099998661,1
405,1,2,1,2,5,0,3,GEORGE,4287,6,ROBBIE,ALFRED,CALLUM,FRASER,4281,278,0,1,0,5.43113630000153,0.835088100007852,2,0,1,0.585508099989966,1
406,1,2,1,2,6,0,1,ROBBIE,302,7,BARNABY,GEORGE,LLOYD,SILAS,299,19,1,NA,NA,3.04979170000297,0.584380900007091,0,1,3,0.93904250000196,3
407,1,2,1,2,7,0,5,DUNCAN,139,15,GRANT,KALLUM,JAMAL,JERRY,139,24,1,NA,NA,2.98197780000919,0.753497400000924,3,0,4,0.9240601999918,4
408,1,2,1,2,8,0,4,ERICA,78,5,PAULA,ESTELLE,TESSA,KATRINA,78,251,1,NA,NA,5.45704590000969,1.38003220000246,2,0,3,0.618503200006671,3
409,1,2,1,2,9,0,3,GRANT,307,2,KALLUM,BARNABY,OSCAR,FERGUS,307,120,1,NA,NA,3.60903559999133,0.0363065999990795,0,0,2,0.750808999990113,2
410,1,2,1,2,10,0,3,BARNABY,113,8,ELIJAH,ROBBIE,BRIAN,SPENCER,113,124,1,NA,NA,2.98935620000702,1.07359729999735,3,0,4,0.958165999996709,4
411,1,2,1,2,11,0,8,POLLY,212,3,KHADIJA,ERICA,KEELEY,ELIZA,209,147,0,1,0,4.97001340000133,2.29038820001006,0,1,1,0.758873099999619,1
412,1,2,1,2,12,0,8,PAULA,45,9,INDIA,BIANCA,SCARLET,CHANTE,45,40,0,0,1,3.55921459999809,1.39090149999538,0,1,1,0.32105440000305,1
413,1,2,1,2,13,0,6,INDIA,245,1,BIANCA,AMARA,BILLIE,LEANNE,242,616,1,NA,NA,3.85235810000449,0.874893200001679,3,0,4,0.981021200001123,4
414,1,2,1,2,14,0,4,BIANCA,62,11,ERICA,KHADIJA,CAMILLA,DAISY,62,828,1,NA,NA,3.74409310000192,0.970247599994764,3,0,4,0.836272100001224,4
415,1,2,1,2,15,0,8,AMARA,36,14,ESTELLE,PAULA,DIANA,ALISHA,36,363,0,1,0,3.57371179999609,0.548120499996003,0,1,1,0.585710499988636,1
416,1,2,1,2,16,0,1,KALLUM,113,4,ALFRED,ELIJAH,DARYL,MELVIN,111,10,0,0,1,3.87300730000425,0.981180199989467,2,0,1,0.472841399998288,1
417,1,2,1,3,1,0,1,KEANU,36,1,RICHIE,AKSHAY,LORENZO,HAROON,36,61,1,NA,NA,4.57348479999928,0.954837700002827,3,0,3,0.788551800011192,3
418,1,2,1,3,2,0,4,TAMSIN,137,5,BETHAN,LINDA,ELINOR,HENNA,136,82,1,NA,NA,1.63293079999858,0.802594100008719,0,1,4,1.05720590001147,4
419,1,2,1,3,3,0,2,LINDA,34,13,LEONIE,TERESA,LOTTIE,AISHA,34,328,1,NA,NA,3.89426279999316,0.782005600005505,3,0,3,0.964403799996944,3
420,1,2,1,3,4,0,5,AKSHAY,51,10,TYLER,BRUNO,ASTON,LANCE,51,35,1,NA,NA,1.84976359999564,0.448193499993067,1,0,4,1.2817950000026,4
421,1,2,1,3,5,0,8,SUZANNE,92,6,LINDA,BETHAN,TAMMY,LILLY,92,89,1,NA,NA,2.29542680000304,0.769294600002468,2,0,4,0.9161979000055,4
422,1,2,1,3,6,0,8,TERESA,48,12,FLEUR,CRYSTAL,KITTY,CALLIE,47,37,1,NA,NA,4.07590579999669,0.764230100001441,2,0,2,1.64251990000776,2
423,1,2,1,3,7,0,3,JASPER,94,15,AKSHAY,KEANU,DAMIEN,BRYAN,90,39,1,NA,NA,3.57295329999761,1.05958799998916,3,0,4,0.723420800000895,4
424,1,2,1,3,8,0,7,BRUNO,16,14,JASPER,RICHIE,CLIVE,ROLAND,16,18,1,NA,NA,2.54247930001293,0.0488831999973627,0,0,4,1.02411640000355,4
425,1,2,1,3,9,0,3,RICHIE,25,7,DARIO,JEREMY,SANDEEP,CHARLIE,25,1912,1,NA,NA,4.83058679998794,0.0439036000025226,0,0,2,0.689746399992146,2
426,1,2,1,3,10,0,3,TYLER,1007,3,JEREMY,DARIO,JASON,BERTRAM,1001,14,1,NA,NA,1.75512139999773,0.536011300006066,0,1,4,0.826188600010937,4
427,1,2,1,3,11,0,2,BETHAN,825,16,TAMSIN,SUZANNE,KELLY,GEMMA,789,1261,0,0,1,5.49964819999877,2.20603190000111,3,0,2,0.473671300002025,2
428,1,2,1,3,12,0,3,DARIO,18,8,KEANU,JASPER,DENZEL,CARLTON,18,40,1,NA,NA,3.71724199999881,0.891491999995196,2,0,3,0.799698899994837,3
429,1,2,1,3,13,0,7,JEREMY,108,2,BRUNO,TYLER,STANLEY,HAROLD,108,54,1,NA,NA,3.34218839999812,0.0526451000041561,0,0,3,0.821243600003072,3
430,1,2,1,3,14,0,6,LEONIE,136,9,CRYSTAL,FLEUR,LUCIE,ESTHER,136,231,0,0,1,5.30703930000891,0.688359100007801,1,0,2,0.972827500008862,2
431,1,2,1,3,15,0,2,CRYSTAL,107,4,SUZANNE,TAMSIN,DARCY,ALEENA,107,30,1,NA,NA,4.64987409999594,2.16468250000617,3,0,3,1.02751680000802,3
432,1,2,1,3,16,0,6,FLEUR,86,11,TERESA,LEONIE,STEVIE,ANNABEL,86,380,1,NA,NA,2.6274751000019,1.13748320000013,3,0,3,1.30672590000904,3
433,1,2,1,4,1,0,7,DANIEL,10338,11,ABDUL,RAHUL,THOMAS,ADEEL,9603,38,0,1,0,4.13588059999165,0.910346000004211,2,0,1,0.600382000004174,1
434,1,2,1,4,2,0,1,NICOLAS,69,1,ELIAS,DARREN,FAISAL,GIANNI,68,15,0,1,0,5.33608729999105,1.14131140000245,0,1,1,0.394150799998897,1
435,1,2,1,4,3,0,5,TOBIAS,296,2,COLBY,DANIEL,MORGAN,REECE,294,1811,0,1,0,5.805153600013,0.437554499992984,0,1,1,0.294439000004786,1
436,1,2,1,4,4,0,2,RIANNE,49,12,KEELY,SINEAD,KAYLA,ELOISE,48,351,1,NA,NA,2.52228189999005,0.0416221000050427,0,0,1,0.418985099997371,1
437,1,2,1,4,5,0,7,GABRIEL,189,10,DANIEL,NICOLAS,HARLEY,JAMAL,186,139,0,0,1,3.35422480000125,0.0562855999887688,0,0,1,0.288974099996267,1
438,1,2,1,4,6,0,2,LAURA,3582,8,APRIL,RIANNE,SARAH,JAYNE,3111,38,0,1,0,4.66840480000246,1.14967579999939,2,0,1,0.503677500004414,1
439,1,2,1,4,7,0,3,ABDUL,201,16,RAHUL,TOBIAS,BRENDAN,NIGEL,192,31,0,1,0,2.00652229999832,0.0350387999933446,0,0,1,0.338008099992294,1
440,1,2,1,4,8,0,1,DARREN,343,6,NICOLAS,COLBY,HAYDEN,ZAHID,340,18,1,NA,NA,2.46247810000204,0.748114600006375,1,0,2,1.07244039999205,2
441,1,2,1,4,9,0,3,COLBY,17,4,TOBIAS,GABRIEL,GIORGIO,QUENTIN,17,11,1,NA,NA,2.49448949999351,0.857320600000094,2,0,4,0.943371300003491,4
442,1,2,1,4,10,0,6,KEELY,132,3,RIANNE,CIARA,LUCINDA,KAITLIN,132,57,1,NA,NA,3.00669819999894,0.971237699995982,0,1,1,0.518111700002919,1
443,1,2,1,4,11,0,2,SINEAD,202,9,NICOLA,LAURA,FFION,WHITNEY,201,95,1,NA,NA,4.77374109999801,1.42739329999313,2,0,1,0.309208599996055,1
444,1,2,1,4,12,0,4,CIARA,276,13,SINEAD,APRIL,RHIANNA,MAISY,276,44,0,1,0,3.41012980000232,0.424340600002324,0,1,2,1.12595889999648,2
445,1,2,1,4,13,0,8,NICOLA,629,7,CIARA,KEELY,LEANNE,CHARLEY,616,256,1,NA,NA,4.0379998999997,1.10999810000067,2,0,1,0.394844700000249,1
446,1,2,1,4,14,0,3,ELIAS,46,15,GABRIEL,ABDUL,GERAINT,JACKSON,46,64,0,1,0,4.34482469999057,0.377358700003242,1,0,1,0.36585919999925,1
447,1,2,1,4,15,0,1,RAHUL,52,14,DARREN,ELIAS,SHELDON,MICAH,52,42,0,0,1,3.212328300011,0.0310693999927025,0,0,1,0.409577200000058,1
448,1,2,1,4,16,0,4,APRIL,300,5,LAURA,NICOLA,CLAUDIA,HAZEL,290,141,1,NA,NA,1.87301500000467,0.0353128999995533,0,0,4,1.17693630000576,4
449,1,2,1,5,1,0,6,ANISA,125,11,TERRI,LUCIA,LEIGH,LUCIE,125,136,0,1,0,3.26945740000519,0.788139700001921,0,1,2,1.40692779999517,2
450,1,2,1,5,2,0,5,MATTEO,24,6,GORDON,CORMAC,BERNARD,"NADIM",23,9,1,NA,NA,2.88491380000778,1.04162540000107,3,0,4,1.01931310001237,4
451,1,2,1,5,3,0,3,CARLO,19,5,CORMAC,GORDON,CLINTON,GIORGIO,19,17,1,NA,NA,3.31245800000033,0.849752399997669,1,0,1,0.496637299991562,1
452,1,2,1,5,4,0,7,JAMES,9385,1,MATTHEW,CARLO,JOSHUA,DERRY,7887,24,1,NA,NA,2.36961860000156,0.928939899997204,1,1,3,1.3394113000104,3
453,1,2,1,5,5,0,1,CRAIG,705,14,CARLO,MATTEO,TIMOTHY,SIMON,691,656,1,NA,NA,4.23950880000484,2.57509460000438,1,1,2,1.10896610000054,2
454,1,2,1,5,6,0,8,STACIE,59,4,AMANDA,JULIE,COLETTE,VICKY,58,58,0,1,0,3.79094079999777,1.53334899999027,2,0,1,0.965634399995906,1
455,1,2,1,5,7,0,4,NIKITA,284,13,LUCIA,STACIE,FIONA,ANNETTE,278,22,0,1,0,4.01883529999759,0.838044799995259,1,0,1,0.296722200000659,1
456,1,2,1,5,8,0,4,LUCIA,98,16,JULIE,NIKITA,SYDNEY,EMILIE,98,96,1,NA,NA,3.37765569999465,0.0326831999991555,0,0,1,0.32654399999592,1
457,1,2,1,5,9,0,5,CORMAC,33,7,JAMES,CRAIG,KENNY,REISS,33,73,0,1,0,1.94800319999922,0.373095799994189,0,1,1,0.498624899992137,1
458,1,2,1,5,10,0,5,AIDAN,680,12,CRAIG,SAMSON,DECLAN,LAURIE,680,43,1,NA,NA,1.46246369999426,0.0524866000050679,0,0,4,0.860997299998417,4
459,1,2,1,5,11,0,8,JULIE,71,15,ANISA,AMANDA,SAIMA,JUDITH,71,32,1,NA,NA,1.91226480000478,0.474713399991742,0,1,4,1.02784399999655,4
460,1,2,1,5,12,0,5,SAMSON,28,2,AIDAN,JAMES,UMAIR,HAYDEN,28,340,1,NA,NA,3.50820840000233,0.0384066999977222,0,0,1,0.287393399994471,1
461,1,2,1,5,13,0,1,MATTHEW,7426,9,SAMSON,AIDAN,JOSEPH,VIVEK,6193,20,1,NA,NA,3.06116709999333,1.22185529999842,0,1,1,0.552148100003251,1
462,1,2,1,5,14,0,7,GORDON,17,3,MATTEO,MATTHEW,LEROY,SOLOMON,17,60,0,1,0,4.09074300000793,0.0379104000021471,0,0,1,1.46423190001224,1
463,1,2,1,5,15,0,6,AMANDA,264,10,STACIE,TERRI,CHARLEY,CASEY,256,215,0,0,1,4.76937219999672,0.0450516000128118,0,0,1,0.321277300012298,1
464,1,2,1,5,16,0,2,TERRI,136,8,NIKITA,ANISA,ROISIN,LUISA,134,39,0,1,0,2.33289229999355,0.298866199998884,1,0,1,0.340761100000236,1
465,1,2,1,6,1,0,7,DWAYNE,29,3,CONNOR,KEITH,GARRY,CARTER,29,20,1,NA,NA,3.21198809999623,0.0375380000041332,0,0,1,0.587010899995221,1
466,1,2,1,6,2,0,7,JORGE,31,15,EUGENE,"NABIL",KAYNE,HARLEY,31,186,0,1,0,3.11356289999094,0.336002600000938,1,0,1,0.280969699990237,1
467,1,2,1,6,3,0,1,KEITH,57,10,"NABIL",JORGE,MONTEL,GRAHAM,57,70,1,NA,NA,1.72212310000032,0.48740449998877,1,0,3,0.607216600008542,3
468,1,2,1,6,4,0,7,GREGORY,339,6,JORGE,DWAYNE,MASON,MARVIN,320,17,1,NA,NA,5.75472890000674,1.6919770000095,3,1,1,0.265676800001529,1
469,1,2,1,6,5,0,6,SALMA,77,14,HOLLY,TASMIN,BRIDIE,VALERIE,76,14,1,NA,NA,4.11416719999397,0.977070399996592,2,0,4,0.954235900004278,4
470,1,2,1,6,6,0,4,SHELBY,201,2,SALMA,HOLLY,EBONY,CLAUDIA,200,290,1,NA,NA,4.7676638999983,2.0684184999991,0,1,1,0.400751400011359,1
471,1,2,1,6,7,0,4,CODIE,61,13,DAYNA,PARIS,CARMEN,JODIE,60,1354,1,NA,NA,2.27583729999606,0.495887099998072,0,1,4,0.957054500002414,4
472,1,2,1,6,8,0,8,HOLLY,2498,8,KEZIA,TIFFANY,OLIVIA,BRIANNA,2456,31,0,1,0,3.91599450001377,0.585631599999033,1,0,1,0.329167399992002,1
473,1,2,1,6,9,0,1,CONNOR,5009,4,GREGORY,EUGENE,HARRY,LUIGI,4434,9,0,1,0,5.5766689000011,0.708117899994249,1,0,1,0.277946400005021,1
474,1,2,1,6,10,0,2,KEZIA,42,5,PARIS,SHELBY,SHANA,JOSIE,42,197,1,NA,NA,3.76915249999729,1.3788224000018099,1,0,1,0.327486199996201,1
475,1,2,1,6,11,0,5,"NABIL",18,1,DWAYNE,CONNOR,ORLANDO,LACHLAN,18,13,0,1,0,3.89275040000211,0.376235100004124,0,1,1,0.41169500000251,1
476,1,2,1,6,12,0,6,TASMIN,57,12,TIFFANY,DAYNA,ALEXIS,COLLEEN,56,30,0,0,1,3.95381550000457,0.62444709999545,2,0,1,0.199133200003416,1
477,1,2,1,6,13,0,6,DAYNA,91,11,CODIE,SALMA,LOWRI,STEVIE,91,86,1,NA,NA,3.18342289999418,1.4526263000007,1,2,3,0.777723899998819,3
478,1,2,1,6,14,0,4,PARIS,157,7,TASMIN,CODIE,"NANCY",MALIKA,156,16,0,0,1,5.53041130000202,2.366589199999,2,1,1,0.292901499997242,1
479,1,2,1,6,15,0,8,TIFFANY,346,16,SHELBY,KEZIA,MAISIE,MOLLY,335,2026,0,0,1,2.22206939999887,0.539685099996859,0,1,1,0.337575300000026,1
480,1,2,1,6,16,0,3,EUGENE,19,9,KEITH,GREGORY,SILAS,TERRELL,19,16,1,NA,NA,3.6892552000063,2.43259379999654,3,0,1,0.287750300005428,1
481,1,2,1,7,1,0,8,TAYLER,41,16,SIOBHAN,KELSIE,CHANTE,ALANA,40,170,1,NA,NA,2.22222969999711,0.777800099996966,1,0,4,1.37530480000714,4
482,1,2,1,7,2,0,4,KELSIE,66,7,CAITLIN,REANNE,KARINA,NICOLE,65,1679,0,1,0,5.34321320000163,1.13346260000253,3,0,1,0.824822400012636,1
483,1,2,1,7,3,0,1,ANISH,28,6,GIDEON,LOUIS,FABIO,DARNELL,28,29,0,0,1,4.34102880000137,1.27169210001011,3,0,1,0.375828699994599,1
484,1,2,1,7,4,0,7,GIDEON,25,2,ANISH,DENNIS,JORDI,ELLIS,25,443,1,NA,NA,3.60593499999959,0.94498700000986,0,1,2,1.7903193999955,2
485,1,2,1,7,5,0,1,LOUIS,1100,11,DENNIS,DALTON,RICHARD,VICTOR,1089,51,0,1,0,5.31729590000759,0.969184200002928,0,1,2,0.74999630000093,2
486,1,2,1,7,6,0,5,DALTON,32,8,LOUIS,ANISH,IDRIS,FARRELL,32,13,1,NA,NA,2.10613400000148,0.663356500008376,1,0,4,0.84891489999427,4
487,1,2,1,7,7,0,8,HEATHER,713,12,KELSIE,LINDSEY,ROBYN,ALEXIS,683,56,1,NA,NA,2.64657979999902,0.710244799993234,1,0,2,0.81260370000382,2
488,1,2,1,7,8,0,8,SIOBHAN,332,4,REANNE,CORAL,AISHA,SCARLET,328,45,1,NA,NA,2.35675330000231,0.594571099994937,0,1,4,0.782123700002558,4
489,1,2,1,7,9,0,3,DENNIS,54,13,DALTON,GIDEON,HAROLD,GERALD,54,23,1,NA,NA,3.22881080000661,1.48891990000266,1,0,3,0.899813399999402,3
490,1,2,1,7,10,0,8,SHANNON,4649,5,TAYLER,JULIA,KATIE,MARINA,4337,56,0,1,0,5.29784260000451,3.10179089999292,1,2,1,0.472214800000074,1
491,1,2,1,7,11,0,4,CAITLIN,906,10,LINDSEY,KRISTEN,ROSIE,LARISSA,879,51,0,1,0,5.03034130000742,1.83477010000206,4,1,1,1.82652299999609,1
492,1,2,1,7,12,0,6,JULIA,184,3,HEATHER,CAITLIN,ALISON,CARYS,181,217,0,0,1,4.70814239999163,0.321643400005996,0,1,1,0.30100809999567,1
493,1,2,1,7,13,0,6,LINDSEY,80,15,SHANNON,TAYLER,"NATALIA",LEONI,79,29,0,0,1,5.28030640000361,3.031891000006,3,0,1,0.30092200000945,1
494,1,2,1,7,14,0,2,CORAL,128,1,KRISTEN,SHANNON,KAYLEY,SHAUNA,127,316,1,NA,NA,1.59774320000724,0.405440499991528,1,0,4,1.02872339999885,4
495,1,2,1,7,15,0,6,REANNE,56,14,CORAL,HEATHER,NISHA,RHIANNA,55,276,1,NA,NA,3.88618889999634,2.18240580000565,3,0,1,0.343631499999901,1
496,1,2,1,7,16,0,2,KRISTEN,40,9,JULIA,SIOBHAN,LEANNA,SAIMA,40,71,1,NA,NA,3.92551410000306,0.466952099988703,1,0,4,0.875825399998575,4
497,1,2,1,8,1,0,4,FARAH,68,2,MADISON,FRANCES,RENEE,LOWRI,67,91,0,1,0,6.11256069999945,3.86000509999576,4,1,1,0.276767900009872,1
498,1,2,1,8,2,0,6,MADISON,169,9,CLARICE,SERENA,TANYA,PAMELA,169,24,1,NA,NA,2.77410830000008,0.498232300000382,1,0,4,0.804230499998084,4
499,1,2,1,8,3,0,8,FRANCES,274,15,CLAIRE,MADISON,LORNA,GRACE,274,1421,0,0,1,3.5441748000012,0.0390264000016032,0,0,1,0.3445364000072,1
500,1,2,1,8,4,0,2,SERENA,139,3,CHANTEL,ALIYA,LAYLA,MIRIAM,138,161,0,0,1,4.01398279999557,0.370510599997942,0,1,1,0.305592299991986,1
501,1,2,1,8,5,0,6,CLARICE,32,12,FRANCES,CLAIRE,JUDITH,BRONWYN,32,73,0,1,0,4.55326820000482,0.394815499996184,1,0,1,0.299591699993471,1
502,1,2,1,8,6,0,8,CHANTEL,74,16,SHONA,FARAH,BRONWYN,ELINOR,73,136,0,0,1,4.74408220000623,1.03796810000495,3,0,1,0.228428399990662,1
503,1,2,1,8,7,0,1,DARIUS,59,13,ARRON,BRETT,TERENCE,STANLEY,58,108,0,1,0,3.43803130000015,0.469211400006316,0,1,1,0.322523000009824,1
504,1,2,1,8,8,0,7,MARCUS,674,14,BRETT,BRUCE,SIMON,SCOTT,656,1632,0,0,1,3.56544639999629,0.946703699999489,1,0,1,0.362039100000402,1
505,1,2,1,8,9,0,1,SHAYNE,18,1,DAVID,MARCUS,ZAHID,STEPHEN,18,1122,0,1,0,2.69417770000291,0.374558900002739,1,0,1,0.507970400009071,1
506,1,2,1,8,10,0,5,DAVID,2517,6,BRUCE,DARIUS,AARON,GAVIN,2511,176,0,1,0,3.50798350000696,1.22446900000796,1,0,1,0.322713400004432,1
507,1,2,1,8,11,0,3,BRUCE,39,5,SHAYNE,ARRON,BRYAN,BROOK,39,16,1,NA,NA,2.95022990000143,0.958518500003265,0,1,1,0.485448599996744,1
508,1,2,1,8,12,0,2,ALIYA,56,7,SERENA,CHANTEL,BRIDGET,LAYLA,56,138,1,NA,NA,3.45414230000461,1.38539090000268,2,0,1,0.289903999990202,1
509,1,2,1,8,13,0,4,CLAIRE,564,4,FARAH,SHONA,IMOGEN,TIERNEY,555,19,1,NA,NA,5.6155895999982,0.981158199996571,3,0,2,0.514903399991454,2
510,1,2,1,8,14,0,8,SHONA,165,11,ALIYA,CLARICE,MIRIAM,ROBERTA,161,48,1,NA,NA,4.54265849999501,0.766556800008402,0,1,3,0.812760399989202,3
511,1,2,1,8,15,0,7,BRETT,214,8,DARIUS,DAVID,AHMED,DARYL,206,111,1,NA,NA,2.96458460000576,1.16614620000473,0,1,1,0.713712199998554,1
512,1,2,1,8,16,0,5,ARRON,253,10,MARCUS,SHAYNE,KEVIN,JORDI,250,25,1,NA,NA,0.363744799993583,0.0352984000055585,0,0,1,2.90943600000173,1
513,1,2,1,9,1,0,3,CALVIN,147,12,ROMAN,CLARK,BILAL,RUBEN,144,49,1,NA,NA,1.48618609999539,0.36168319999706,0,1,4,0.865117199995439,4
514,1,2,1,9,2,0,7,OLIVER,3655,15,CLARK,EDWARD,LEWIS,DEXTER,3569,51,1,NA,NA,1.86339969999972,0.546439300000202,0,1,3,0.91668780001055,3
515,1,2,1,9,3,0,5,ROMAN,27,13,JAYDEN,SHAUN,BRYCE,KENNETH,26,69,0,1,0,5.16227220000292,0.0462591000105022,0,0,1,0.82542839999951,1
516,1,2,1,9,4,0,4,ALICIA,504,9,EILISH,ELLEN,WILLOW,LOREN,1536,102,1,NA,NA,3.98858109999856,0.0397533999930602,0,0,1,0.293817999991006,1
517,1,2,1,9,5,0,2,TABITHA,132,11,MONIQUE,DEBBIE,KIRAN,TESSA,130,78,1,NA,NA,3.24858250000398,0.923996700003045,2,0,3,0.532019399994169,3
518,1,2,1,9,6,0,7,ASHER,37,1,EDWARD,JAYDEN,AYRTON,MALIK,37,44,1,NA,NA,3.05424309999216,0.416116899999906,1,0,1,0.857530099994619,1
519,1,2,1,9,7,0,7,SHAUN,773,4,DYLAN,ROMAN,CURTIS,SONNY,757,127,1,NA,NA,2.13887879998947,0.953931199997896,0,1,4,0.916079800008447,4
520,1,2,1,9,8,0,1,JAYDEN,75,5,CALVIN,ASHER,ASHTON,JOSHUA,74,7887,1,NA,NA,3.0622893999971,0.890075300005265,3,0,3,0.532438600013847,3
521,1,2,1,9,9,0,4,DEBBIE,43,6,ALICIA,TABITHA,HONOR,RABIA,43,37,0,1,0,2.38526359999378,0.0502898999984609,0,0,1,0.383059699990554,1
522,1,2,1,9,10,0,7,CLARK,26,10,SHAUN,OLIVER,MACAULY,TIMOTHY,26,691,0,0,1,4.68085869999777,0.883079599996563,3,0,1,0.269726400001673,1
523,1,2,1,9,11,0,2,EILISH,56,2,DEBBIE,KIERA,MARINA,LOTTIE,56,34,0,1,0,2.33841820000089,0.0583706000033999,0,0,1,0.767856499995105,1
524,1,2,1,9,12,0,8,MONIQUE,123,8,TABITHA,ALICIA,DEBORAH,NISHA,118,55,1,NA,NA,2.10194009999395,0.517423099998268,0,1,2,0.835532700002659,2
525,1,2,1,9,13,0,1,DYLAN,1186,7,OLIVER,CALVIN,HENRY,DENZEL,1135,18,1,NA,NA,4.12865429998783,1.44340170000214,1,2,1,0.308864699996775,1
526,1,2,1,9,14,0,6,ELLEN,929,14,KIERA,EILISH,PHOEBE,SHARON,910,46,1,NA,NA,2.70257819999824,0.859032099993783,2,0,1,0.444612699997379,1
527,1,2,1,9,15,0,6,KIERA,221,3,ELLEN,MONIQUE,CARYS,KATIE,217,4337,0,1,0,2.22600340000645,0.0547656999988249,0,0,1,0.380250400005025,1
528,1,2,1,9,16,0,1,EDWARD,1658,16,ASHER,DYLAN,SCOTT,KAYNE,1632,31,0,0,1,3.00989850000769,0.0368774999951711,0,0,1,0.526002099999459,1
529,1,2,1,10,1,0,3,ROWAN,172,16,CALEB,WAYNE,ARCHIE,AUSTEN,169,19,1,NA,NA,2.8435199999949,1.30464060000668,1,0,3,0.670842200008337,3
530,1,2,1,10,2,0,8,POPPY,537,12,ROXANNE,SABINA,ISOBEL,SHANI,522,39,0,1,0,0.990814599994337,0.0479613999923458,0,0,1,1.41118800001277,1
531,1,2,1,10,3,0,6,LILLIAN,47,4,SABRINA,LYDIA,FARHANA,"NAZIA",46,38,1,NA,NA,2.19506709999405,0.40703649999341,1,0,1,0.532336300006136,1
532,1,2,1,10,4,0,7,ROHAN,70,14,SIMEON,ALFIE,KENNETH,ERNEST,69,9,1,NA,NA,2.17202030000044,0.0542090999952052,0,0,3,0.832624400005443,3
533,1,2,1,10,5,0,6,SABRINA,272,5,HELEN,POPPY,BROOKE,ANISHA,269,111,1,NA,NA,1.91837810000288,0.441693999993731,1,0,3,0.625554300000658,3
534,1,2,1,10,6,0,1,WAYNE,84,15,ROWAN,CALEB,JIMMY,ALLEN,80,10,1,NA,NA,2.49310340000375,0.592640200004098,1,0,1,0.442141200008336,1
535,1,2,1,10,7,0,5,CALEB,177,6,ROHAN,EDMUND,GAVIN,FAISAL,176,68,1,NA,NA,4.73161699999764,0.788450699998066,2,0,1,0.304483400002937,1
536,1,2,1,10,8,0,1,EDMUND,64,1,STEVEN,ROWAN,JACKSON,UMAIR,64,28,1,NA,NA,6.35052179999184,0.0369638999982271,0,0,1,0.393478599988157,1
537,1,2,1,10,9,0,4,ROXANNE,125,11,LILLIAN,SABRINA,SONIA,KIRSTEN,125,225,0,1,0,6.25522519998776,2.2321258999873,3,1,1,0.278721599999699,1
538,1,2,1,10,10,0,2,SABINA,39,10,POPPY,MARISSA,SHANI,DANIELA,39,43,0,0,1,2.92359609999403,0.0652088999922853,0,0,1,0.288413200003561,1
539,1,2,1,10,11,0,2,HELEN,435,2,MARISSA,ROXANNE,TAMARA,RENEE,397,67,0,0,1,2.76675360000809,0.304982399989967,1,0,1,0.316712500003632,1
540,1,2,1,10,12,0,4,MARISSA,48,7,LYDIA,HELEN,ROBERTA,COLETTE,48,58,0,1,0,3.11444249999477,0.328565199990408,1,0,1,0.32529789999534803,1
541,1,2,1,10,13,0,1,STEVEN,877,8,ALFIE,ROHAN,SHANE,RICHARD,846,1089,1,NA,NA,3.63551569999254,0.0364988999936031,0,0,2,0.593342899999698,2
542,1,2,1,10,14,0,2,LYDIA,1009,13,SABINA,LILLIAN,AMELIA,CAROL,929,28,1,NA,NA,5.1493177000084,0.619063899997855,2,0,1,0.316779500004486,1
543,1,2,1,10,15,0,5,SIMEON,67,9,EDMUND,STEVEN,RONNIE,JOSEPH,66,6193,1,NA,NA,3.83899470001052,0.439975500004948,0,1,1,0.680262399997446,1
544,1,2,1,10,16,0,7,ALFIE,372,3,WAYNE,SIMEON,TAYLOR,DECLAN,354,680,1,NA,NA,1.72072209999897,0.464920400001574,2,0,4,0.901368999999249,4
545,1,2,1,11,1,0,3,SAMIR,50,7,EMERSON,RAPHAEL,RUBEN,MORGAN,49,294,0,1,0,1.98810640000738,0.0354427999991458,0,0,1,0.337399500000174,1
546,1,2,1,11,2,0,7,RAPHAEL,47,10,SAMIR,EMERSON,VISHAL,TARIQ,47,36,0,1,0,3.0414926000085,0.668228599999566,2,0,1,0.358867799994186,1
547,1,2,1,11,3,0,6,MARTHA,198,11,MONICA,FREYA,JOSIE,JANET,197,19,0,1,0,3.89150800000061,0.959810600004857,3,0,1,0.305756599991582,1
548,1,2,1,11,4,0,4,ANITA,71,8,RHIAN,MARTHA,AOIFE,MAXINE,71,62,1,NA,NA,2.72414549998939,0.61284169999999,2,0,4,0.790436299997964,4
549,1,2,1,11,5,0,3,FINLEY,22,16,LAMAR,RUFUS,ROGER,TIAGO,22,40,1,NA,NA,3.45912519999547,0.0289174999925308,0,0,3,0.778730699996231,3
550,1,2,1,11,6,0,3,CAMERON,1791,5,RUFUS,CONNER,CHARLES,LINUS,1738,9,1,NA,NA,2.71667770000931,0.310789400013164,1,0,1,0.27370950000477,1
551,1,2,1,11,7,0,5,LAMAR,28,1,CAMERON,FINLEY,TIAGO,NICKY,40,27,0,1,0,3.9160211999988,0.400149900000542,1,0,1,0.293530499999179,1
552,1,2,1,11,8,0,3,CONNER,229,3,RAPHAEL,BRADEN,MILES,MCAULEY,223,18,0,1,0,3.96104219999688,0.59192880000046,2,0,1,0.289098499997635,1
553,1,2,1,11,9,0,1,BRADEN,32,4,FINLEY,LAMAR,BRADY,RONNIE,32,66,0,1,0,2.01769780000905,0.0357003999961307,0,0,1,0.320764000003692,1
554,1,2,1,11,10,0,7,RUFUS,31,6,CONNER,REGAN,TARAN,ANDREW,31,2676,1,NA,NA,2.74720500000694,1.09433209999406,3,0,4,0.959826699996484,4
555,1,2,1,11,11,0,2,MONICA,93,13,CORINNE,ANITA,CERYS,LYNDSEY,92,50,0,0,1,2.61202580000099,0.454058199989959,1,0,1,0.718039900006261,1
556,1,2,1,11,12,0,8,CORINNE,49,12,FREYA,RHIAN,JUSTINE,OLIVIA,49,2456,1,NA,NA,3.26648049999494,0.0421272000094177,0,0,3,0.823749400005909,3
557,1,2,1,11,13,0,3,REGAN,136,2,BRADEN,CAMERON,WARREN,FRANK,136,86,0,1,0,2.42300910000631,0.0619909999950323,0,0,1,0.394538000007742,1
558,1,2,1,11,14,0,5,EMERSON,16,14,REGAN,SAMIR,KESTER,RONAN,16,105,0,0,1,2.82730299999821,0.0644825999916065,0,0,1,0.318518299987772,1
559,1,2,1,11,15,0,6,FREYA,394,15,ANITA,CORINNE,ANNIE,PEARL,389,27,0,0,1,3.93180500000017,0.33833610000147,1,0,1,0.300724599990644,1
560,1,2,1,11,16,0,2,RHIAN,192,9,MARTHA,MONICA,LIBBY,KELLY,191,789,1,NA,NA,3.62307339999825,0.448083600000245,0,1,3,1.15753579999728,3
561,1,2,1,12,1,0,1,CAINE,51,4,KEEGAN,USMAN,DEXTER,RISHI,51,34,0,1,0,3.05149990000064,0.0414191000018036,0,0,1,0.305524999988847,1
562,1,2,1,12,2,0,7,KEEGAN,46,13,ROBIN,MAURICE,BARRY,IDRIS,45,32,1,NA,NA,4.1472466999985,0.0379675000003772,0,0,1,0.359597400005441,1
563,1,2,1,12,3,0,5,SEAMUS,30,11,MAURICE,ROBIN,OMARI,"NATHAN",30,2744,0,1,0,3.15677820000565,0.0375881000072695,0,0,1,0.319245399994543,1
564,1,2,1,12,4,0,4,DEVON,106,3,DAVINA,MEERA,ZAHRA,SONIA,106,125,0,1,0,4.6283337000059,1.610165399994,2,2,1,0.297758799992152,1
565,1,2,1,12,5,0,2,ABIGAIL,2595,14,MEERA,MELANIE,ELEANOR,SHIVANI,2555,83,0,0,1,4.53715050000756,0.274450099997921,0,1,1,0.302451399998972,1
566,1,2,1,12,6,0,6,SYEDA,89,8,SALLY,JENNY,ANGELA,"NANCY",87,156,1,NA,NA,3.42473050000262,0.70133120000537,2,0,1,0.416448200005107,1
567,1,2,1,12,7,0,4,JENNY,147,10,DEVON,DAVINA,BECKY,LUCINDA,146,132,0,1,0,3.43241110000235,0.0545702000090387,0,0,2,0.741012800004683,2
568,1,2,1,12,8,0,3,USMAN,106,5,JONAH,SEAMUS,RONAN,BRIAN,105,113,1,NA,NA,2.62844990000303,0.0373598000005586,0,0,3,0.819208200002322,3
569,1,2,1,12,9,0,8,MELANIE,166,2,JENNY,DEVON,SAFFRON,JASMINE,166,1145,1,NA,NA,3.66544289999001,0.904087999995681,3,0,1,0.290361599996686,1
570,1,2,1,12,10,0,5,ROBIN,161,1,ANTHONY,JONAH,MAXWELL,HARRY,160,4434,1,NA,NA,5.52919240000483,0.0453614999860292,0,0,1,0.316073399997549,1
571,1,2,1,12,11,0,4,MEERA,41,12,ABIGAIL,SALLY,ROWENA,KIRAN,41,130,1,NA,NA,2.66757499999949,0.593706100000418,2,0,3,0.839885399997002,3
572,1,2,1,12,12,0,3,ANTHONY,1045,15,USMAN,KEEGAN,PATRICK,ISMAIL,1039,75,1,NA,NA,3.91375160000462,0.345188799998141,1,0,3,0.790052800002741,3
573,1,2,1,12,13,0,5,MAURICE,18,7,SEAMUS,CAINE,MCAULEY,DEVANTE,18,29,0,1,0,3.95202960001188,1.91986610001186,0,1,1,0.457005000003846,1
574,1,2,1,12,14,0,6,DAVINA,41,16,MELANIE,SYEDA,MARNIE,SHANICE,41,200,0,1,0,4.18125800001144,0.399979599998915,0,1,2,0.647184799992829,2
575,1,2,1,12,15,0,2,SALLY,309,9,SYEDA,ABIGAIL,HELENA,CHLOE,308,6824,0,1,0,3.99264769999718,0.811813599997549,3,0,2,0.657374999995227,2
576,1,2,1,12,16,0,5,JONAH,78,6,CAINE,ANTHONY,RAYMOND,DEREK,78,40,1,NA,NA,2.32411659999343,0.496768199998769,1,0,1,0.341290500000468,1
577,1,2,2,2,1,0,2,ESTELLE,36,6,AMARA,POLLY,PETRA,DEBORAH,35,118,0,1,0,4.67999950000376,0.388184600000386,0,1,NA,NA,1
578,1,2,2,2,2,0,8,POLLY,212,2,PAULA,KHADIJA,KEELEY,ELIZA,209,147,0,0,1,6.12701820000075,5.84718700000667,1,0,NA,NA,1
579,1,2,2,2,3,0,8,AMARA,36,1,ERICA,ESTELLE,DIANA,ALISHA,36,363,NA,NA,NA,NA,NA,0,1,NA,NA,1
580,1,2,2,2,4,0,7,ALFRED,142,15,ROBBIE,GEORGE,DOUGLAS,ALESSIO,142,12,1,NA,NA,3.10439219999535,0.824853999991319,3,0,NA,NA,2
581,1,2,2,2,5,0,4,BIANCA,62,5,INDIA,AMARA,CAMILLA,DAISY,62,828,1,NA,NA,2.30827779999527,0.0266688999981852,0,0,NA,NA,4
582,1,2,2,2,6,0,4,ERICA,78,8,BIANCA,PAULA,TESSA,KATRINA,78,251,1,NA,NA,2.46967859999859,0.640535899990937,0,1,NA,NA,3
583,1,2,2,2,7,0,1,ROBBIE,302,16,GEORGE,ELIJAH,LLOYD,SILAS,299,19,1,NA,NA,4.17432610000833,0.753870200001984,1,0,NA,NA,3
584,1,2,2,2,8,0,5,DUNCAN,139,10,BARNABY,ROBBIE,JAMAL,JERRY,139,24,1,NA,NA,4.92812479998975,1.96503069999744,1,1,NA,NA,4
585,1,2,2,2,9,0,8,PAULA,45,11,POLLY,INDIA,SCARLET,CHANTE,45,40,0,1,0,3.60250429999724,0.450264300001436,0,1,NA,NA,1
586,1,2,2,2,10,0,3,GRANT,307,12,KALLUM,DUNCAN,OSCAR,FERGUS,307,120,1,NA,NA,3.40675200000987,0.821233499998925,2,0,NA,NA,2
587,1,2,2,2,11,0,3,GEORGE,4287,13,DUNCAN,BARNABY,CALLUM,FRASER,4281,278,0,1,0,5.21471250000468,1.64994299999671,2,0,NA,NA,1
588,1,2,2,2,12,0,6,INDIA,245,4,KHADIJA,BIANCA,BILLIE,LEANNE,242,616,1,NA,NA,2.57931379998627,0.668812600008096,2,0,NA,NA,4
589,1,2,2,2,13,0,3,BARNABY,113,7,ALFRED,KALLUM,BRIAN,SPENCER,113,124,1,NA,NA,2.89912830000685,0.871870900009526,3,0,NA,NA,4
590,1,2,2,2,14,0,8,KHADIJA,46,3,ESTELLE,ERICA,SANAH,ROWENA,46,41,1,NA,NA,4.41938229999505,0.04261669999687,0,0,NA,NA,1
591,1,2,2,2,15,0,1,KALLUM,113,9,ELIJAH,GRANT,DARYL,MELVIN,111,10,0,1,0,2.43621549999807,0.0379554999963148,0,0,NA,NA,1
592,1,2,2,2,16,0,7,ELIJAH,78,14,GRANT,ALFRED,FINLAY,ASTON,78,51,1,NA,NA,3.63402969999879,1.34899569999834,4,1,NA,NA,4
593,1,2,2,7,1,0,2,CORAL,128,4,JULIA,SIOBHAN,KAYLEY,SHAUNA,127,316,1,NA,NA,3.16173290000006,0.364467699997476,1,0,NA,NA,4
594,1,2,2,7,2,0,8,SHANNON,4649,1,SIOBHAN,HEATHER,KATIE,MARINA,4337,56,0,1,0,4.97724860000017,0.0286569999880157,0,0,NA,NA,1
595,1,2,2,7,3,0,8,HEATHER,713,5,KELSIE,TAYLER,ROBYN,ALEXIS,683,56,0,0,1,4.46060789999319,0.698655800006236,2,0,NA,NA,2
596,1,2,2,7,4,0,6,JULIA,184,6,CORAL,LINDSEY,ALISON,CARYS,181,217,1,NA,NA,3.24205729999812,0.0282196000043768,0,0,NA,NA,1
597,1,2,2,7,5,0,1,ANISH,28,3,DALTON,LOUIS,FABIO,DARNELL,28,29,0,0,1,5.25005640000745,1.42315280000912,3,0,NA,NA,1
598,1,2,2,7,6,0,5,DALTON,32,11,GIDEON,DENNIS,IDRIS,FARRELL,32,13,1,NA,NA,4.01240849999886,1.40788159999647,2,0,NA,NA,4
599,1,2,2,7,7,0,1,LOUIS,1100,14,DENNIS,GIDEON,RICHARD,VICTOR,1089,51,1,NA,NA,5.36732570000459,3.32027220001328,2,2,NA,NA,2
600,1,2,2,7,8,0,6,REANNE,56,8,LINDSEY,CAITLIN,NISHA,RHIANNA,55,276,1,NA,NA,4.1173254000023,1.86036100001365,3,0,NA,NA,1
601,1,2,2,7,9,0,3,DENNIS,54,12,LOUIS,ANISH,HAROLD,GERALD,54,23,1,NA,NA,1.40143030000036,0.0268897000059951,0,0,NA,NA,3
602,1,2,2,7,10,0,2,KRISTEN,40,16,SHANNON,JULIA,LEANNA,SAIMA,40,71,1,NA,NA,4.23453370000061,2.26292409999587,2,2,NA,NA,4
603,1,2,2,7,11,0,6,LINDSEY,80,2,HEATHER,REANNE,"NATALIA",LEONI,79,29,0,0,1,4.07980799999496,0.695210899997619,3,0,NA,NA,1
604,1,2,2,7,12,0,8,TAYLER,41,7,REANNE,CORAL,CHANTE,ALANA,40,170,1,NA,NA,2.70009290000598,0.0406146000023,0,0,NA,NA,4
605,1,2,2,7,13,0,4,CAITLIN,906,10,TAYLER,SHANNON,ROSIE,LARISSA,879,51,1,NA,NA,4.12265219999244,0.926334199990379,0,1,NA,NA,1
606,1,2,2,7,14,0,8,SIOBHAN,332,9,KRISTEN,KELSIE,AISHA,SCARLET,328,45,1,NA,NA,2.39016840000113,0.824863200003165,1,0,NA,NA,4
607,1,2,2,7,15,0,7,GIDEON,25,15,ANISH,DALTON,JORDI,ELLIS,25,443,1,NA,NA,4.99368379999942,2.91894790000515,3,0,NA,NA,2
608,1,2,2,7,16,0,4,KELSIE,66,13,CAITLIN,KRISTEN,KARINA,NICOLE,65,1679,1,NA,NA,2.61522720000357,0.032907199987676,0,0,NA,NA,1
609,1,2,2,11,1,0,5,EMERSON,16,13,REGAN,CONNER,KESTER,RONAN,16,105,0,0,1,3.16591229999904,0.505014900001697,0,1,NA,NA,1
610,1,2,2,11,2,0,4,ANITA,71,3,CORINNE,MONICA,AOIFE,MAXINE,71,62,1,NA,NA,3.22470260001137,0.953250500009744,3,0,NA,NA,4
611,1,2,2,11,3,0,2,RHIAN,192,15,FREYA,CORINNE,LIBBY,KELLY,191,789,1,NA,NA,3.5218506000092,0.824012900004163,2,0,NA,NA,3
612,1,2,2,11,4,0,3,CAMERON,1791,11,FINLEY,RAPHAEL,CHARLES,LINUS,1738,9,0,0,1,2.46934120000515,0.0267447999940487,0,0,NA,NA,1
613,1,2,2,11,5,0,3,SAMIR,50,2,BRADEN,LAMAR,RUBEN,MORGAN,49,294,1,NA,NA,2.7837761999981,0.492175899998983,1,0,NA,NA,1
614,1,2,2,11,6,0,6,FREYA,394,9,MARTHA,RHIAN,ANNIE,PEARL,389,27,0,1,0,2.5386628999986,0.0424481000081869,0,0,NA,NA,1
615,1,2,2,11,7,0,3,FINLEY,22,16,CONNER,RUFUS,ROGER,TIAGO,22,40,1,NA,NA,5.55206869999529,2.60472789999039,1,1,NA,NA,3
616,1,2,2,11,8,0,7,RUFUS,31,6,RAPHAEL,SAMIR,TARAN,ANDREW,31,2676,1,NA,NA,2.87163470000087,0.613648300000932,2,0,NA,NA,4
617,1,2,2,11,9,0,8,CORINNE,49,7,RHIAN,FREYA,JUSTINE,OLIVIA,49,2456,0,1,0,3.78074869999546,0.8210759999929,0,1,NA,NA,3
618,1,2,2,11,10,0,6,MARTHA,198,14,MONICA,ANITA,JOSIE,JANET,197,19,1,NA,NA,4.86986310000066,1.58903389998886,1,2,NA,NA,1
619,1,2,2,11,11,0,2,MONICA,93,12,ANITA,MARTHA,CERYS,LYNDSEY,92,50,0,1,0,3.49307629998657,0.680162799995742,1,0,NA,NA,1
620,1,2,2,11,12,0,1,BRADEN,32,10,LAMAR,FINLEY,BRADY,RONNIE,32,66,0,1,0,3.33322810000391,1.11412170001131,2,0,NA,NA,1
621,1,2,2,11,13,0,7,RAPHAEL,47,1,RUFUS,EMERSON,VISHAL,TARIQ,47,36,0,1,0,7.83964540000306,0.365010499997879,0,1,NA,NA,1
622,1,2,2,11,14,0,3,CONNER,229,8,EMERSON,BRADEN,MILES,MCAULEY,223,18,0,1,0,3.71119400000316,0.0268534999922849,0,0,NA,NA,1
623,1,2,2,11,15,0,5,LAMAR,28,4,CAMERON,REGAN,TIAGO,NICKY,40,27,0,1,0,2.4121662999969,0.0272503000014694,0,0,NA,NA,1
624,1,2,2,11,16,0,3,REGAN,136,5,SAMIR,CAMERON,WARREN,FRANK,136,86,1,NA,NA,3.13199550000718,0.376973699996597,1,0,NA,NA,1
625,1,2,2,3,1,0,8,SUZANNE,92,15,TERESA,BETHAN,TAMMY,LILLY,92,89,1,NA,NA,2.76307270000689,0.919604399998207,3,0,NA,NA,4
626,1,2,2,3,2,0,6,FLEUR,86,16,TAMSIN,LINDA,STEVIE,ANNABEL,86,380,1,NA,NA,2.34100460000627,0.676066300002276,1,0,NA,NA,3
627,1,2,2,3,3,0,3,TYLER,1007,14,AKSHAY,JEREMY,JASON,BERTRAM,1001,14,1,NA,NA,2.8514686999988,1.04347039999266,2,0,NA,NA,4
628,1,2,2,3,4,0,3,RICHIE,25,5,KEANU,JASPER,SANDEEP,CHARLIE,25,1912,0,1,0,3.84042670000053,0.764739799997187,1,0,NA,NA,2
629,1,2,2,3,5,0,3,JASPER,94,8,JEREMY,DARIO,DAMIEN,BRYAN,90,39,1,NA,NA,3.43379290000303,0.888330699992366,3,0,NA,NA,4
630,1,2,2,3,6,0,1,KEANU,36,13,DARIO,RICHIE,LORENZO,HAROON,36,61,1,NA,NA,3.85642050000024,0.919996299999184,3,0,NA,NA,3
631,1,2,2,3,7,0,8,TERESA,48,12,SUZANNE,FLEUR,KITTY,CALLIE,47,37,0,1,0,5.03426559999934,3.46486700000241,2,1,NA,NA,2
632,1,2,2,3,8,0,3,DARIO,18,10,BRUNO,TYLER,DENZEL,CARLTON,18,40,1,NA,NA,2.60078149999026,0.0279911999969045,0,0,NA,NA,3
633,1,2,2,3,9,0,2,BETHAN,825,7,LINDA,LEONIE,KELLY,GEMMA,789,1261,0,0,1,3.54198069999984,1.4679535000032,2,0,NA,NA,2
634,1,2,2,3,10,0,2,LINDA,34,2,FLEUR,CRYSTAL,LOTTIE,AISHA,34,328,1,NA,NA,5.86176339999656,2.92073369999707,0,1,NA,NA,3
635,1,2,2,3,11,0,2,CRYSTAL,107,4,BETHAN,TERESA,DARCY,ALEENA,107,30,1,NA,NA,3.25603469999623,0.792205299992929,3,0,NA,NA,3
636,1,2,2,3,12,0,6,LEONIE,136,6,CRYSTAL,TAMSIN,LUCIE,ESTHER,136,231,1,NA,NA,3.8596860000107,2.03112680000777,2,0,NA,NA,2
637,1,2,2,3,13,0,7,BRUNO,16,1,TYLER,AKSHAY,CLIVE,ROLAND,16,18,1,NA,NA,3.18038609999348,1.18677179999941,3,1,NA,NA,4
638,1,2,2,3,14,0,7,JEREMY,108,9,JASPER,BRUNO,STANLEY,HAROLD,108,54,0,1,0,3.14392130001215,0.0284941999998409,0,0,NA,NA,3
639,1,2,2,3,15,0,4,TAMSIN,137,11,LEONIE,SUZANNE,ELINOR,HENNA,136,82,1,NA,NA,4.40402180000092,2.78351869998733,0,1,NA,NA,4
640,1,2,2,3,16,0,5,AKSHAY,51,3,RICHIE,KEANU,ASTON,LANCE,51,35,1,NA,NA,2.75106550000783,0.426088400010485,1,0,NA,NA,4
641,1,2,2,12,1,0,3,USMAN,106,8,KEEGAN,ANTHONY,RONAN,BRIAN,105,113,1,NA,NA,6.34287629999744,4.23134399999981,2,0,NA,NA,3
642,1,2,2,12,2,0,6,SYEDA,89,16,JENNY,DEVON,ANGELA,"NANCY",87,156,1,NA,NA,4.86768799999845,2.51526939999894,1,2,NA,NA,1
643,1,2,2,12,3,0,2,SALLY,309,9,MEERA,MELANIE,HELENA,CHLOE,308,6824,0,1,0,3.7188654000056,1.35592700001143,1,0,NA,NA,2
644,1,2,2,12,4,0,6,DAVINA,41,5,SALLY,ABIGAIL,MARNIE,SHANICE,41,200,1,NA,NA,4.92556229999173,3.47993230000429,2,1,NA,NA,2
645,1,2,2,12,5,0,7,KEEGAN,46,11,CAINE,MAURICE,BARRY,IDRIS,45,32,0,1,0,4.01826409999921,0.0280096000060439,0,0,NA,NA,1
646,1,2,2,12,6,0,4,JENNY,147,2,DEVON,SALLY,BECKY,LUCINDA,146,132,0,1,0,2.6126537000091,0.028766599993105,0,0,NA,NA,2
647,1,2,2,12,7,0,1,CAINE,51,7,ANTHONY,USMAN,DEXTER,RISHI,51,34,0,1,0,2.99027159999241,1.14006439999503,1,1,NA,NA,1
648,1,2,2,12,8,0,5,JONAH,78,14,USMAN,CAINE,RAYMOND,DEREK,78,40,0,0,1,4.09794180000608,0.828789699997287,1,1,NA,NA,1
649,1,2,2,12,9,0,5,SEAMUS,30,6,JONAH,ROBIN,OMARI,"NATHAN",30,2744,1,NA,NA,3.74058659998991,0.700389300007373,0,1,NA,NA,1
650,1,2,2,12,10,0,2,ABIGAIL,2595,13,DAVINA,JENNY,ELEANOR,SHIVANI,2555,83,0,1,0,4.96144739999727,1.46879569999874,3,1,NA,NA,1
651,1,2,2,12,11,0,4,MEERA,41,10,ABIGAIL,SYEDA,ROWENA,KIRAN,41,130,1,NA,NA,2.10334029998921,0.0340727000002516,0,0,NA,NA,3
652,1,2,2,12,12,0,3,ANTHONY,1045,1,SEAMUS,KEEGAN,PATRICK,ISMAIL,1039,75,1,NA,NA,2.94558139999572,1.33771200000774,1,1,NA,NA,3
653,1,2,2,12,13,0,5,ROBIN,161,4,MAURICE,JONAH,MAXWELL,HARRY,160,4434,0,1,0,2.43660400000226,0.345553699997254,1,0,NA,NA,1
654,1,2,2,12,14,0,5,MAURICE,18,15,ROBIN,SEAMUS,MCAULEY,DEVANTE,18,29,0,1,0,4.14735889999429,2.83173819999502,2,1,NA,NA,1
655,1,2,2,12,15,0,8,MELANIE,166,12,SYEDA,DAVINA,SAFFRON,JASMINE,166,1145,1,NA,NA,3.74620999999752,0.025540299990098,0,0,NA,NA,1
656,1,2,2,12,16,0,4,DEVON,106,3,MELANIE,MEERA,ZAHRA,SONIA,106,125,0,1,0,5.19960610000999,3.18005660000199,1,1,NA,NA,1
657,1,2,2,6,1,0,1,KEITH,57,10,JORGE,EUGENE,MONTEL,GRAHAM,57,70,1,NA,NA,6.55989039999258,1.52852370000619,3,0,NA,NA,3
658,1,2,2,6,2,0,7,GREGORY,339,16,KEITH,"NABIL",MASON,MARVIN,320,17,0,0,1,3.83525940000254,0.776944400000502,1,0,NA,NA,1
659,1,2,2,6,3,0,6,DAYNA,91,15,KEZIA,TASMIN,LOWRI,STEVIE,91,86,1,NA,NA,5.49383890000172,4.13165450000088,4,1,NA,NA,3
660,1,2,2,6,4,0,5,"NABIL",18,6,CONNOR,DWAYNE,ORLANDO,LACHLAN,18,13,0,1,0,3.37863249999646,0.894130500004394,0,1,NA,NA,1
661,1,2,2,6,5,0,6,SALMA,77,7,DAYNA,CODIE,BRIDIE,VALERIE,76,14,1,NA,NA,3.84147810000286,0.768777999997837,3,0,NA,NA,4
662,1,2,2,6,6,0,4,PARIS,157,11,TASMIN,KEZIA,"NANCY",MALIKA,156,16,1,NA,NA,6.18307850000565,1.33425929999794,0,1,NA,NA,1
663,1,2,2,6,7,0,7,JORGE,31,5,"NABIL",GREGORY,KAYNE,HARLEY,31,186,0,1,0,4.83832489998895,0.405265299996245,1,0,NA,NA,1
664,1,2,2,6,8,0,6,TASMIN,57,4,HOLLY,PARIS,ALEXIS,COLLEEN,56,30,1,NA,NA,4.04545389999112,0.0352464000025066,0,0,NA,NA,1
665,1,2,2,6,9,0,4,CODIE,61,2,SALMA,HOLLY,CARMEN,JODIE,60,1354,1,NA,NA,1.97630270000082,0.0341245000017807,0,0,NA,NA,4
666,1,2,2,6,10,0,3,EUGENE,19,12,DWAYNE,CONNOR,SILAS,TERRELL,19,16,1,NA,NA,2.36837909999304,0.0267897000012454,0,0,NA,NA,1
667,1,2,2,6,11,0,1,CONNOR,5009,3,GREGORY,JORGE,HARRY,LUIGI,4434,9,0,1,0,4.72032300000137,0.027749800006859,0,0,NA,NA,1
668,1,2,2,6,12,0,2,KEZIA,42,1,CODIE,TIFFANY,SHANA,JOSIE,42,197,1,NA,NA,4.63971639999363,2.15478149999399,3,0,NA,NA,1
669,1,2,2,6,13,0,8,TIFFANY,346,14,SHELBY,SALMA,MAISIE,MOLLY,335,2026,0,0,1,2.79613889999746,0.350292400005856,1,0,NA,NA,1
670,1,2,2,6,14,0,8,HOLLY,2498,13,PARIS,SHELBY,OLIVIA,BRIANNA,2456,31,0,0,1,4.42290000000503,0.027412399998866,0,0,NA,NA,1
671,1,2,2,6,15,0,4,SHELBY,201,9,TIFFANY,DAYNA,EBONY,CLAUDIA,200,290,1,NA,NA,2.20049730000028,0.885567599994829,0,1,NA,NA,1
672,1,2,2,6,16,0,7,DWAYNE,29,8,EUGENE,KEITH,GARRY,CARTER,29,20,1,NA,NA,2.35057789999701,0.645823799990467,0,1,NA,NA,1
673,1,2,2,9,1,0,4,ALICIA,504,1,KIERA,MONIQUE,WILLOW,LOREN,1536,102,1,NA,NA,5.07403299999714,0.408805200000643,0,1,NA,NA,1
674,1,2,2,9,2,0,6,KIERA,221,6,EILISH,TABITHA,CARYS,KATIE,217,4337,0,1,0,5.11254190000182,3.56431880001037,2,3,NA,NA,1
675,1,2,2,9,3,0,2,TABITHA,132,4,ELLEN,DEBBIE,KIRAN,TESSA,130,78,1,NA,NA,3.33468709999579,0.616644999987329,2,0,NA,NA,3
676,1,2,2,9,4,0,7,ASHER,37,9,JAYDEN,EDWARD,AYRTON,MALIK,37,44,1,NA,NA,2.99403429999074,1.42738569999347,0,1,NA,NA,1
677,1,2,2,9,5,0,4,DEBBIE,43,13,ALICIA,ELLEN,HONOR,RABIA,43,37,0,1,0,4.2307112999988,2.01425569999265,0,1,NA,NA,1
678,1,2,2,9,6,0,5,ROMAN,27,12,SHAUN,OLIVER,BRYCE,KENNETH,26,69,0,0,1,7.847757800002,5.93357740000647,3,1,NA,NA,1
679,1,2,2,9,7,0,1,EDWARD,1658,15,CLARK,DYLAN,SCOTT,KAYNE,1632,31,0,0,1,5.1953926999995,0.84190430000308,2,0,NA,NA,1
680,1,2,2,9,8,0,7,CLARK,26,8,OLIVER,ASHER,MACAULY,TIMOTHY,26,691,0,0,1,5.05192379999789,3.06227179999405,2,0,NA,NA,1
681,1,2,2,9,9,0,1,JAYDEN,75,10,ROMAN,CLARK,ASHTON,JOSHUA,74,7887,1,NA,NA,3.94030349999957,1.53073349999613,0,1,NA,NA,3
682,1,2,2,9,10,0,7,SHAUN,773,11,CALVIN,ROMAN,CURTIS,SONNY,757,127,1,NA,NA,1.83965950000857,0.614310599994496,1,0,NA,NA,4
683,1,2,2,9,11,0,3,CALVIN,147,2,EDWARD,SHAUN,BILAL,RUBEN,144,49,1,NA,NA,1.38550360000227,0.387203200007207,0,1,NA,NA,4
684,1,2,2,9,12,0,2,EILISH,56,5,MONIQUE,ALICIA,MARINA,LOTTIE,56,34,0,0,1,2.92846559999452,0.0280077000061283,0,0,NA,NA,1
685,1,2,2,9,13,0,7,OLIVER,3655,7,DYLAN,JAYDEN,LEWIS,DEXTER,3569,51,1,NA,NA,3.22836099998676,0.459827799990308,1,0,NA,NA,3
686,1,2,2,9,14,0,8,MONIQUE,123,16,DEBBIE,KIERA,DEBORAH,NISHA,118,55,1,NA,NA,3.01588629999605,0.397632699998212,1,0,NA,NA,2
687,1,2,2,9,15,0,6,ELLEN,929,14,TABITHA,EILISH,PHOEBE,SHARON,910,46,0,1,0,1.72077459999127,0.0253025999991223,0,0,NA,NA,1
688,1,2,2,9,16,0,1,DYLAN,1186,3,ASHER,CALVIN,HENRY,DENZEL,1135,18,0,0,1,2.39934050000738,0.0340123000059975,0,0,NA,NA,1
689,1,2,2,5,1,0,3,CARLO,19,7,JAMES,MATTHEW,CLINTON,GIORGIO,19,17,0,0,1,3.20586039999034,0.615088200007449,0,1,NA,NA,1
690,1,2,2,5,2,0,1,CRAIG,705,12,AIDAN,MATTEO,TIMOTHY,SIMON,691,656,0,0,1,6.06223780001164,3.98807170000509,4,1,NA,NA,2
691,1,2,2,5,3,0,5,MATTEO,24,5,CRAIG,AIDAN,BERNARD,"NADIM",23,9,0,0,1,3.87621200000285,0.981658300006529,0,1,NA,NA,4
692,1,2,2,5,4,0,2,TERRI,136,3,AMANDA,JULIE,ROISIN,LUISA,134,39,0,0,1,3.94769229998928,0.028034499991918,0,0,NA,NA,1
693,1,2,2,5,5,0,4,NIKITA,284,14,JULIE,TERRI,FIONA,ANNETTE,278,22,0,0,1,2.78093639999861,0.0351051000034204,0,0,NA,NA,1
694,1,2,2,5,6,0,7,JAMES,9385,4,SAMSON,CORMAC,JOSHUA,DERRY,7887,24,1,NA,NA,6.30274830000417,1.85118910000892,4,1,NA,NA,3
695,1,2,2,5,7,0,5,SAMSON,28,6,MATTHEW,CRAIG,UMAIR,HAYDEN,28,340,1,NA,NA,3.76791739999317,0.0431722000066657,0,0,NA,NA,1
696,1,2,2,5,8,0,6,ANISA,125,2,NIKITA,AMANDA,LEIGH,LUCIE,125,136,0,1,0,4.50763940000616,0.311369099988951,0,1,NA,NA,2
697,1,2,2,5,9,0,5,AIDAN,680,1,CARLO,GORDON,DECLAN,LAURIE,680,43,1,NA,NA,1.92098690000421,0.0271694999973988,0,0,NA,NA,4
698,1,2,2,5,10,0,5,CORMAC,33,13,MATTEO,SAMSON,KENNY,REISS,33,73,0,1,0,4.5494131000014,2.41777569999977,3,2,NA,NA,1
699,1,2,2,5,11,0,8,STACIE,59,8,ANISA,LUCIA,COLETTE,VICKY,58,58,0,1,0,4.34497619999456,0.0317731000104686,0,0,NA,NA,1
700,1,2,2,5,12,0,6,AMANDA,264,15,STACIE,NIKITA,CHARLEY,CASEY,256,215,0,0,1,4.85389820000273,0.731615600001533,3,0,NA,NA,1
701,1,2,2,5,13,0,8,JULIE,71,9,LUCIA,STACIE,SAIMA,JUDITH,71,32,1,NA,NA,3.12889039999573,0.972195099995588,0,1,NA,NA,4
702,1,2,2,5,14,0,7,GORDON,17,16,CORMAC,JAMES,LEROY,SOLOMON,17,60,0,0,1,3.53026829998998,1.48881779999647,1,0,NA,NA,1
703,1,2,2,5,15,0,4,LUCIA,98,11,TERRI,ANISA,SYDNEY,EMILIE,98,96,0,0,1,5.34354549999989,2.55612690000271,3,4,NA,NA,1
704,1,2,2,5,16,0,1,MATTHEW,7426,10,GORDON,CARLO,JOSEPH,VIVEK,6193,20,0,1,0,4.0498224000039,0.0290256999869598,0,0,NA,NA,1
705,1,2,2,1,1,0,6,ELSPETH,42,11,ROSHNI,LILIAN,FAIZA,CHRISTY,42,31,1,NA,NA,7.66537240000616,4.21716770000057,3,2,NA,NA,4
706,1,2,2,1,2,0,1,NIALL,462,12,MARLON,LOGAN,ELLIS,ASHTON,443,74,0,0,1,4.8832867000019204,2.20352479998837,2,1,NA,NA,1
707,1,2,2,1,3,0,5,ROBERT,2644,8,ROSHAN,HARVEY,BRADLEY,SOREN,2557,37,0,0,1,6.14707380000618,0.0473603999998886,0,0,NA,NA,1
708,1,2,2,1,4,0,2,LILIAN,40,4,BELINDA,NEELAM,MELODY,PETRA,40,35,0,1,0,4.41331720000017,1.23293030000059,3,0,NA,NA,1
709,1,2,2,1,5,0,8,ROSHNI,37,3,NEELAM,CHELSEA,STORM,JOLENE,36,25,0,1,0,5.14883869999903,0.0332907999982126,0,0,NA,NA,2
710,1,2,2,1,6,0,6,BELINDA,43,16,"NAFEESA",ELSPETH,DANIELA,CELIA,43,44,1,NA,NA,3.2865340999997,0.0323197999969125,0,0,NA,NA,3
711,1,2,2,1,7,0,5,HARVEY,401,1,NIALL,MARLON,GARETH,COLTON,373,9,0,1,0,4.54588309999963,1.68929249999928,3,0,NA,NA,1
712,1,2,2,1,8,0,5,JULIAN,102,5,PETER,ROSHAN,GLENN,DANTE,100,11,0,1,0,4.66077790000418,0.0281859000097029,0,0,NA,NA,1
713,1,2,2,1,9,0,8,SASKIA,171,6,ELSPETH,ROSHNI,ALANA,PAULINE,170,15,0,1,0,4.0611707999924,0.520391199999722,1,0,NA,NA,1
714,1,2,2,1,10,0,2,"NAFEESA",38,2,LILIAN,SASKIA,"NAZIA",AMELIA,38,929,0,1,0,5.74420869999449,0.039830499998061,0,0,NA,NA,2
715,1,2,2,1,11,0,3,LOGAN,111,14,ROBERT,JULIAN,RUSSELL,GRAEME,111,20,1,NA,NA,3.38182139999117,0.0265645000035875,0,0,NA,NA,1
716,1,2,2,1,12,0,5,PETER,1128,7,JULIAN,NIALL,STEPHEN,OAKLEY,1122,17,0,1,0,3.60756140000012,0.0322193000029074,0,0,NA,NA,2
717,1,2,2,1,13,0,1,MARLON,26,10,LOGAN,PETER,VINAY,JORDAN,26,5750,0,0,1,2.85427280000295,0.843017599996529,0,1,NA,NA,3
718,1,2,2,1,14,0,4,NEELAM,37,13,CHELSEA,BELINDA,RABIA,ALINA,37,42,0,1,0,4.86744940000062,2.66344489999756,1,2,NA,NA,2
719,1,2,2,1,15,0,4,CHELSEA,1735,15,SASKIA,"NAFEESA",NICOLE,STELLA,1679,42,0,0,1,5.97863219999999,3.15513780000038,3,3,NA,NA,4
720,1,2,2,1,16,0,7,ROSHAN,32,9,HARVEY,ROBERT,JEFFREY,MARLEY,31,50,0,1,0,4.34875949998968,1.83439360000193,1,0,NA,NA,1
721,1,2,2,8,1,0,5,DAVID,2517,7,BRUCE,ARRON,AARON,GAVIN,2511,176,0,1,0,4.52864209999098,1.95296619999863,1,0,NA,NA,1
722,1,2,2,8,2,0,1,DARIUS,59,8,ARRON,BRETT,TERENCE,STANLEY,58,108,1,NA,NA,3.96345729999302,0.0276537999889115,0,0,NA,NA,1
723,1,2,2,8,3,0,5,ARRON,253,12,MARCUS,DARIUS,KEVIN,JORDI,250,25,1,NA,NA,4.68296239999472,2.21381380000093,1,0,NA,NA,1
724,1,2,2,8,4,0,6,MADISON,169,3,SERENA,CLARICE,TANYA,PAMELA,169,24,1,NA,NA,2.83604789999663,1.23423070000717,4,0,NA,NA,4
725,1,2,2,8,5,0,1,SHAYNE,18,11,DAVID,MARCUS,ZAHID,STEPHEN,18,1122,0,1,0,3.27247200001148,1.50714319999679,0,1,NA,NA,1
726,1,2,2,8,6,0,3,BRUCE,39,2,DARIUS,SHAYNE,BRYAN,BROOK,39,16,0,1,0,3.88276340000448,0.938792200002354,2,0,NA,NA,1
727,1,2,2,8,7,0,4,FARAH,68,16,CLAIRE,ALIYA,RENEE,LOWRI,67,91,0,1,0,1.94507139999769,0.0319607999990694,0,0,NA,NA,1
728,1,2,2,8,8,0,7,MARCUS,674,5,BRETT,BRUCE,SIMON,SCOTT,656,1632,0,1,0,2.75203269999474,0.0318648000102257,0,0,NA,NA,1
729,1,2,2,8,9,0,2,SERENA,139,6,CHANTEL,CLAIRE,LAYLA,MIRIAM,138,161,0,1,0,3.08179009999731,1.80961620000016,1,1,NA,NA,1
730,1,2,2,8,10,0,6,CLARICE,32,13,SHONA,FRANCES,JUDITH,BRONWYN,32,73,0,0,1,5.55401570000686,2.51342160000058,3,1,NA,NA,1
731,1,2,2,8,11,0,8,CHANTEL,74,1,FRANCES,MADISON,BRONWYN,ELINOR,73,136,0,0,1,5.7311611000041,2.54670299999998,2,0,NA,NA,1
732,1,2,2,8,12,0,8,FRANCES,274,14,FARAH,SERENA,LORNA,GRACE,274,1421,0,0,1,4.60885530000087,0.0281107999908272,0,0,NA,NA,1
733,1,2,2,8,13,0,8,SHONA,165,4,CLARICE,CHANTEL,MIRIAM,ROBERTA,161,48,1,NA,NA,2.3873120000062,0.0272841999976663,0,0,NA,NA,3
734,1,2,2,8,14,0,4,CLAIRE,564,9,ALIYA,FARAH,IMOGEN,TIERNEY,555,19,1,NA,NA,2.92425190001086,0.414672600003541,1,0,NA,NA,2
735,1,2,2,8,15,0,2,ALIYA,56,15,MADISON,SHONA,BRIDGET,LAYLA,56,138,1,NA,NA,4.61356440000236,2.06931219999387,1,0,NA,NA,1
736,1,2,2,8,16,0,7,BRETT,214,10,SHAYNE,DAVID,AHMED,DARYL,206,111,0,0,1,4.33557279998786,0.494534099998418,1,0,NA,NA,1
737,1,2,2,4,1,0,1,RAHUL,52,1,DARREN,DANIEL,SHELDON,MICAH,52,42,0,1,0,5.45874760000152,2.28427340000053,2,3,NA,NA,1
738,1,2,2,4,2,0,3,ABDUL,201,6,GABRIEL,RAHUL,BRENDAN,NIGEL,192,31,1,NA,NA,2.6609260999976,0.0294989000103669,0,0,NA,NA,1
739,1,2,2,4,3,0,6,KEELY,132,16,LAURA,APRIL,LUCINDA,KAITLIN,132,57,0,0,1,4.47971970000071,0.0336616999993566,0,0,NA,NA,1
740,1,2,2,4,4,0,4,APRIL,300,2,CIARA,NICOLA,CLAUDIA,HAZEL,290,141,1,NA,NA,2.12159640000027,0.405893000002834,1,0,NA,NA,4
741,1,2,2,4,5,0,3,COLBY,17,7,DANIEL,DARREN,GIORGIO,QUENTIN,17,11,1,NA,NA,3.88090779999038,1.26080419999198,2,0,NA,NA,4
742,1,2,2,4,6,0,1,DARREN,343,11,COLBY,ABDUL,HAYDEN,ZAHID,340,18,NA,NA,NA,NA,NA,0,0,NA,NA,2
743,1,2,2,4,7,0,8,NICOLA,629,14,RIANNE,LAURA,LEANNE,CHARLEY,616,256,0,0,1,3.75312419999682,2.90768129999924,2,3,NA,NA,1
744,1,2,2,4,8,0,2,RIANNE,49,13,NICOLA,SINEAD,KAYLA,ELOISE,48,351,0,1,0,6.31267280000611,3.04995079999208,4,1,NA,NA,1
745,1,2,2,4,9,0,1,NICOLAS,69,15,ELIAS,TOBIAS,FAISAL,GIANNI,68,15,0,0,1,6.14191720000235,3.11648969999806,2,2,NA,NA,1
746,1,2,2,4,10,0,2,SINEAD,202,9,KEELY,RIANNE,FFION,WHITNEY,201,95,0,1,0,4.67521159999887,2.40654660000291,1,0,NA,NA,1
747,1,2,2,4,11,0,7,DANIEL,10338,5,TOBIAS,ELIAS,THOMAS,ADEEL,9603,38,0,1,0,3.16483160000644,1.10063529999752,1,0,NA,NA,1
748,1,2,2,4,12,0,2,LAURA,3582,3,APRIL,CIARA,SARAH,JAYNE,3111,38,0,0,1,5.15258880000329,2.56201480000163,3,1,NA,NA,1
749,1,2,2,4,13,0,4,CIARA,276,12,SINEAD,KEELY,RHIANNA,MAISY,276,44,0,1,0,3.74004030000651,1.51787789999798,1,2,NA,NA,2
750,1,2,2,4,14,0,7,GABRIEL,189,8,NICOLAS,COLBY,HARLEY,JAMAL,186,139,0,0,1,7.12073480000254,4.40379799999937,5,3,NA,NA,1
751,1,2,2,4,15,0,5,TOBIAS,296,10,ABDUL,NICOLAS,MORGAN,REECE,294,1811,1,NA,NA,3.53914619999705,0.0338321000017459,0,0,NA,NA,1
752,1,2,2,4,16,0,3,ELIAS,46,4,RAHUL,GABRIEL,GERAINT,JACKSON,46,64,0,1,0,2.61828320000495,0.0372648000047775,0,0,NA,NA,1
753,1,2,2,10,1,0,2,LYDIA,1009,9,SABINA,MARISSA,AMELIA,CAROL,929,28,1,NA,NA,6.15447039999708,4.32002539999667,4,4,NA,NA,1
754,1,2,2,10,2,0,7,ROHAN,70,13,ALFIE,STEVEN,KENNETH,ERNEST,69,9,1,NA,NA,2.69509920000564,0.589440299998387,0,1,NA,NA,3
755,1,2,2,10,3,0,4,ROXANNE,125,8,SABRINA,POPPY,SONIA,KIRSTEN,125,225,1,NA,NA,7.22546849999344,2.01308330000029,1,0,NA,NA,1
756,1,2,2,10,4,0,1,STEVEN,877,7,CALEB,ALFIE,SHANE,RICHARD,846,1089,0,1,0,5.83602129999781,1.56129489999148,0,1,NA,NA,2
757,1,2,2,10,5,0,6,LILLIAN,47,6,POPPY,HELEN,FARHANA,"NAZIA",46,38,1,NA,NA,4.07608719999553,0.378838900011033,1,0,NA,NA,1
758,1,2,2,10,6,0,2,HELEN,435,5,ROXANNE,SABINA,TAMARA,RENEE,397,67,1,NA,NA,6.52373929999885,3.22701020000386,2,3,NA,NA,1
759,1,2,2,10,7,0,5,CALEB,177,12,STEVEN,ROWAN,GAVIN,FAISAL,176,68,0,1,0,5.24415560001216,1.06973989999096,1,0,NA,NA,1
760,1,2,2,10,8,0,1,EDMUND,64,4,ROHAN,WAYNE,JACKSON,UMAIR,64,28,1,NA,NA,2.81460209999932,0.422143800009508,0,1,NA,NA,1
761,1,2,2,10,9,0,6,SABRINA,272,11,HELEN,LYDIA,BROOKE,ANISHA,269,111,1,NA,NA,3.12196999999287,0.44720700000471,0,1,NA,NA,3
762,1,2,2,10,10,0,5,SIMEON,67,10,ROWAN,ROHAN,RONNIE,JOSEPH,66,6193,0,0,1,6.23403470001358,2.33366709999973,2,1,NA,NA,1
763,1,2,2,10,11,0,7,ALFIE,372,1,SIMEON,CALEB,TAYLOR,DECLAN,354,680,1,NA,NA,3.36885820000316,0.789590100001078,3,0,NA,NA,4
764,1,2,2,10,12,0,4,MARISSA,48,2,LILLIAN,SABRINA,ROBERTA,COLETTE,48,58,0,0,1,3.9757052000059,1.83723649999592,2,1,NA,NA,1
765,1,2,2,10,13,0,1,WAYNE,84,3,EDMUND,SIMEON,JIMMY,ALLEN,80,10,1,NA,NA,5.36522629999672,1.29127919999883,3,0,NA,NA,1
766,1,2,2,10,14,0,8,POPPY,537,14,LYDIA,LILLIAN,ISOBEL,SHANI,522,39,1,NA,NA,5.67318430000159,0.374515599993174,1,0,NA,NA,1
767,1,2,2,10,15,0,2,SABINA,39,15,MARISSA,ROXANNE,SHANI,DANIELA,39,43,0,0,1,2.830547199992,1.19809849999729,2,0,NA,NA,1
768,1,2,2,10,16,0,3,ROWAN,172,16,WAYNE,EDMUND,ARCHIE,AUSTEN,169,19,0,0,1,6.37972009999794,5.10014640000009,2,2,NA,NA,3
769,2,1,1,1,1,1,8,CARRIE,97,15,AMBER,JESSICA,EMILIE,HELENA,96,308,0,1,0,3.65100070000335,2.85076269999263,3,1,2,0.662644399999408,2
770,2,1,1,1,2,1,6,JESSICA,6711,2,CARRIE,CHANICE,EMILY,PENNY,6415,81,1,NA,NA,3.24768400000175,1.49345560000802,1,0,2,0.739929900009884,2
771,2,1,1,1,3,1,4,ANTONIA,234,5,JULIET,AMINA,ESTHER,WILLOW,231,1536,1,NA,NA,2.96289959999558,1.71357930000522,2,0,4,1.16267419999349,4
772,2,1,1,1,4,1,5,JEROME,135,10,TRISTAN,CONRAD,ARTHUR,DAYLE,129,30,0,0,1,2.83053819999623,1.42962699999043,1,1,2,0.655285500004538,2
773,2,1,1,1,5,1,5,TRISTAN,250,13,EDWIN,FLYNN,ANGUS,ZACHARY,247,574,0,1,0,1.93023399999947,1.02250269999786,1,1,2,0.663805799995316,2
774,2,1,1,1,6,1,5,CONRAD,39,8,JEROME,ASHLEY,LEONARD,BRADY,39,32,0,1,0,5.53399949999584,3.86357280000811,3,2,2,1.75106740000774,2
775,2,1,1,1,7,1,7,ASHLEY,1874,3,FLYNN,EDWIN,REECE,EAMON,1811,24,0,1,0,4.06978299999901,2.72574799999711,2,0,2,0.921336500003235,2
776,2,1,1,1,8,1,8,CLARE,216,7,AMINA,ANTONIA,CASEY,BROOKE,215,269,1,NA,NA,2.63556680000329,0.887722200001008,1,0,4,1.15726809999614,4
777,2,1,1,1,9,1,4,JULIET,57,6,CLARE,CARRIE,KAITLIN,KEELEY,57,209,1,NA,NA,1.42866249999497,0.318085700011579,0,1,4,1.2491330000048,4
778,2,1,1,1,10,1,1,JACOB,2249,4,LYNDON,TRISTAN,CHARLIE,GETHIN,1912,38,1,NA,NA,1.92362259999209,0.841224200004945,1,2,4,1.23887539999851,4
779,2,1,1,1,11,1,6,AMBER,1422,9,JESSICA,JULIET,GRACE,FAITH,1421,116,1,NA,NA,4.86654269999417,3.03483419999247,4,1,3,0.805524700001115,3
780,2,1,1,1,12,1,3,FLYNN,20,1,JACOB,LYNDON,GRAEME,JASON,20,1001,1,NA,NA,3.59501109999837,1.93690999998944,2,0,2,1.32943870000599,2
781,2,1,1,1,13,1,1,EDWIN,48,11,CONRAD,JACOB,GILES,JARED,47,158,1,NA,NA,1.95880880000186,0.85837130001164,1,0,4,0.966321200001403,4
782,2,1,1,1,14,1,2,CHANICE,37,14,ANTONIA,CLARE,KEISHA,FARHANA,37,46,1,NA,NA,3.02203959999315,2.17368710000301,3,0,3,0.784347799999523,3
783,2,1,1,1,15,1,5,LYNDON,37,12,ASHLEY,JEROME,SOREN,TRENT,37,10,1,NA,NA,2.89323289999447,1.73571009999432,1,1,4,0.874491399998078,4
784,2,1,1,1,16,1,2,AMINA,151,16,CHANICE,AMBER,ELIZA,CANDICE,147,66,1,NA,NA,1.74380830000155,0.889973400000599,2,1,4,0.902743300001021,4
785,2,1,1,2,1,1,7,HAMZA,220,10,DILLON,AINSLEY,ANTONY,ARCHIE,217,169,1,NA,NA,3.50130769998941,2.67054069999722,4,1,4,1.32929360000708,4
786,2,1,1,2,2,1,6,TALIA,86,2,PALOMA,BONNIE,HALIMA,FFION,85,201,1,NA,NA,3.87364610000805,2.6188484000013,4,2,2,0.677496699994663,2
787,2,1,1,2,3,1,3,ARONAS,44,9,CIARAN,KAINE,MALIK,SANDEEP,44,25,1,NA,NA,1.24827989999903,0.0259955000074115,0,0,4,1.10514580000017,4
788,2,1,1,2,4,1,4,LAUREN,6299,6,JAZMIN,TALIA,HANNAH,EBONY,5916,200,1,NA,NA,3.12998779999907,2.21436879999237,3,1,2,0.731700999996974,2
789,2,1,1,2,5,1,2,PRIYA,101,7,LAUREN,PALOMA,KIRBY,DARCY,100,107,1,NA,NA,2.30590330000268,1.27509049999935,1,2,4,0.86702890000015,4
790,2,1,1,2,6,1,8,PALOMA,38,4,HAYLEY,PRIYA,CALLIE,ADINA,37,20,1,NA,NA,2.22239010001067,1.11396729999979,3,0,4,0.848874799994519,4
791,2,1,1,2,7,1,8,JAZMIN,62,12,ELLIE,LAUREN,MAXINE,KAYLEY,62,127,1,NA,NA,2.61776139998983,1.95651019999059,1,1,3,0.928664000006393,3
