S_ID,Session,Run,block,trial,StimType,OrderCond,Name,NameNum,NameFreqOrder,NameFreq,RespOrder,NameFoil1,NameFoil2,NameDistractor1,NameDistractor2,DistractorNameFreq1,DistractorNameFreq2,Accuracy,Foil,Distractor,RT,RTonset,rpress,lpress,Confidence
1,1,1,1,1,2,3,MAISIE,73,135,335,13,HARRIET,KERRY,SASHA,ELOISE,333,351,1,NaN,NaN,4.51358675735537,1.1878765336005,0,1,4
1,1,1,1,2,2,1,STEPHEN,37,60,1122,16,ROBBIE,LOUIS,RICHARD,HENRY,1089,1135,0,1,0,4.30681609234307,1.4868807363091,1,0,3
1,1,1,1,3,2,3,SOPHIE,1,1,7087,6,MAISIE,CARYS,JESSICA,REBECCA,6711,5828,0,1,0,3.28724445577245,0.040669537265785,0,0,4
1,1,1,1,4,2,1,DANIEL,1,2,10338,8,OSCAR,ALFRED,JAMES,SAMUEL,9385,6161,0,1,0,4.30645285348874,1.74104341201019,1,0,3
1,1,1,1,5,2,4,CHLOE,2,2,6824,10,CARYS,CASEY,EMILY,MEGAN,6415,4948,1,NaN,NaN,4.32037821318954,0.423592742183246,1,0,2
1,1,1,1,6,2,3,HAYLEY,37,57,1088,7,KERRY,HARRIET,LYDIA,KIRSTY,1009,1202,0,1,0,3.57273010234348,0.03392693400383,0,0,1
1,1,1,1,7,2,2,THOMAS,2,3,9603,15,ALFRED,DOUGLAS,JOSHUA,JORDAN,7887,5750,1,NaN,NaN,3.53944522095844,0.391922756680287,1,0,3
1,1,1,1,8,2,4,HARRIET,38,60,1046,4,SOPHIE,MAISIE,AMELIA,JASMINE,929,1145,0,1,0,6.32027365802787,0.490065761492588,1,0,2
1,1,1,1,9,2,3,CARYS,109,199,217,1,CASEY,CHLOE,ELENA,KIRSTEN,213,225,0,1,0,3.98359656392131,0.970145908533596,1,0,2
1,1,1,1,10,2,1,ALFRED,109,218,142,14,DOUGLAS,THOMAS,DUNCAN,FELIX,139,149,0,1,0,3.11077945237048,1.24350466346368,0,1,3
1,1,1,1,11,2,2,LOUIS,38,61,1100,2,DANIEL,OSCAR,ANTHONY,PETER,1045,1128,0,0,1,2.72910369827878,0.040769285405986,0,0,1
1,1,1,1,12,2,4,CASEY,110,201,215,11,HAYLEY,SOPHIE,VANESSA,KIERA,213,221,0,1,0,4.10142627602909,0.0353134911274537,0,0,3
1,1,1,1,13,2,2,ROBBIE,74,130,302,5,THOMAS,STEPHEN,TOBIAS,GRANT,296,307,0,0,1,4.4259608554421,1.06956070032902,1,0,3
1,1,1,1,14,2,1,OSCAR,73,128,307,9,LOUIS,ROBBIE,LLOYD,MASON,299,320,0,0,1,6.5609192798147,2.54592102847528,3,0,2
1,1,1,1,15,2,4,KERRY,74,136,333,12,CHLOE,HAYLEY,SIOBHAN,TIFFANY,332,346,1,NaN,NaN,4.41913202428259,1.73493865504861,1,0,2
1,1,1,1,16,2,2,DOUGLAS,110,218,142,3,STEPHEN,DANIEL,JAMAL,CALVIN,139,147,0,1,0,4.62227510730736,1.81157094670925,2,0,3
1,1,1,2,1,0,2,JOSEPH,6,8,6193,3,TYLER,DAMON,JORDAN,JOSHUA,5750,7887,0,0,1,6.72636273177341,2.7156428276794,1,0,2
1,1,1,2,2,0,3,ELLEN,41,63,929,8,MILLIE,POLLY,CAITLIN,LYDIA,906,1009,0,0,1,5.11406332440674,1.30678664857987,1,0,2
1,1,1,2,3,0,1,PATRICK,41,66,1039,2,CIARAN,PERRY,JASON,RICHARD,1001,1089,1,NaN,NaN,3.88079604902305,1.14468926098198,3,0,3
1,1,1,2,4,0,4,PHOEBE,42,65,910,1,SUMMER,AISHA,ROSIE,AMELIA,879,929,1,NaN,NaN,3.87741573399398,0.72712676518131,1,0,4
1,1,1,2,5,0,4,HANNAH,6,6,5916,10,PHOEBE,SUMMER,MEGAN,EMILY,4948,6415,0,0,1,4.54661325539928,0.8340220550308,0,1,2
1,1,1,2,6,0,2,TYLER,42,67,1007,13,DAMON,MORGAN,ELLIOT,ANTHONY,919,1045,1,NaN,NaN,5.78529306082055,2.30782108334824,3,0,2
1,1,1,2,7,0,1,MATTHEW,5,6,7426,14,JOSEPH,PATRICK,SAMUEL,JAMES,6161,9385,1,NaN,NaN,4.90132760966662,0.49773073324468,0,1,1
1,1,1,2,8,0,3,LAUREN,5,5,6299,12,HANNAH,ELLEN,REBECCA,JESSICA,5828,6711,0,1,0,5.91804621333722,2.76113812450785,3,0,2
1,1,1,2,9,0,3,POLLY,113,204,212,9,LAUREN,HANNAH,DEANNA,ELENA,202,213,0,1,0,5.72824622609187,3.17456858989317,2,1,2
1,1,1,2,10,0,1,MORGAN,77,133,294,15,PERRY,MATTHEW,FRASER,LLOYD,278,299,1,NaN,NaN,3.34520704916213,1.99468421353959,3,0,2
1,1,1,2,11,0,1,PERRY,113,220,139,16,MATTHEW,JOSEPH,REGAN,DUNCAN,136,139,0,1,0,4.22994344402105,0.397429626667872,1,0,1
1,1,1,2,12,0,2,DAMON,114,226,136,6,PATRICK,CIARAN,WARREN,JAMAL,136,139,0,1,0,5.36500702437479,0.513102739234455,0,1,2
1,1,1,2,13,0,3,AISHA,77,139,328,4,POLLY,LAUREN,SHAUNA,SASHA,316,333,1,NaN,NaN,2.45950502157211,0.733789149555378,0,1,4
1,1,1,2,14,0,2,CIARAN,78,136,278,11,MORGAN,TYLER,KEVIN,TOBIAS,250,296,0,0,1,3.75480322598014,0.697886484442279,2,0,2
1,1,1,2,15,0,4,MILLIE,78,140,324,5,AISHA,PHOEBE,SALLY,SIOBHAN,309,332,0,0,1,4.90392225910909,1.19952000794001,1,0,3
1,1,1,2,16,0,4,SUMMER,114,206,203,7,ELLEN,MILLIE,SINEAD,VANESSA,202,213,0,1,0,4.61014130571857,0.0326803845819086,0,0,3
1,1,1,3,1,1,1,CONNOR,9,13,5009,10,JEROME,ARTHUR,GEORGE,SAMUEL,4287,6161,0,1,0,3.61015783017501,0.0370434577343985,0,0,2
1,1,1,3,2,1,3,HELENA,81,145,308,3,AIMEE,SHELBY,CLAUDIA,SHAUNA,290,316,1,NaN,NaN,5.75343169120606,2.63595199841075,1,1,2
1,1,1,3,3,1,3,AIMEE,45,70,876,5,DAISY,KATIE,BETHAN,CAITLIN,825,906,1,NaN,NaN,2.9767776473891,0.0358882438158616,0,0,3
1,1,1,3,4,1,2,HARRY,10,17,4434,15,TRISTAN,ANGUS,CALLUM,JORDAN,4281,5750,1,NaN,NaN,4.64434555103071,1.11604476405773,2,0,3
1,1,1,3,5,1,3,SHANNON,9,11,4649,1,SHELBY,EBONY,BETHANY,REBECCA,4271,5828,0,0,1,7.48649015673436,2.90093252353836,3,0,2
1,1,1,3,6,1,1,BILLY,45,71,914,12,SHANE,HARRY,SHAUN,JASON,773,1001,1,NaN,NaN,5.45119919907302,2.00470768439118,2,0,2
1,1,1,3,7,1,4,KATIE,10,12,4337,7,HELENA,APRIL,GEORGIA,MEGAN,3723,4948,1,NaN,NaN,6.13212071429007,2.64357821270823,2,0,2
1,1,1,3,8,1,2,SHANE,46,74,846,8,ARTHUR,CONNOR,CURTIS,ELLIOT,757,919,0,1,0,4.73153851053212,1.98922661668621,2,0,2
1,1,1,3,9,1,2,ARTHUR,118,234,129,11,HARRY,SHANE,BOBBY,WARREN,126,136,0,1,0,4.8934345995076,3.7940213100519,1,2,2
1,1,1,3,10,1,3,SHELBY,117,209,201,14,APRIL,AIMEE,MATILDA,DEANNA,200,202,0,0,1,4.9056329971645,0.0822794699342921,1,0,2
1,1,1,3,11,1,4,DAISY,46,71,828,6,EBONY,SHANNON,KELLY,ROSIE,789,879,0,0,1,3.54316413833294,0.747019277769141,0,1,3
1,1,1,3,12,1,4,APRIL,82,146,300,9,SHANNON,HELENA,JENNA,SALLY,289,309,0,0,1,4.41225391987246,2.7890897935722,2,0,2
1,1,1,3,13,1,1,TRISTAN,81,141,250,2,BILLY,JEROME,TOMMY,FRASER,247,278,0,0,1,4.81712378491648,0.0449388712877408,0,0,2
1,1,1,3,14,1,1,JEROME,117,230,135,4,ANGUS,BILLY,SONNY,REGAN,127,136,0,1,0,4.5647929267725,1.03103424236178,3,0,3
1,1,1,3,15,1,2,ANGUS,82,144,247,16,CONNOR,TRISTAN,RICKY,KEVIN,242,250,0,0,1,8.05682570661884,5.28360395482741,4,1,2
1,1,1,3,16,1,4,EBONY,118,211,200,13,KATIE,DAISY,SHANICE,SINEAD,200,202,0,1,0,3.79269364033826,0.672959703020751,2,0,2
1,1,1,4,1,2,3,NADIA,85,153,285,12,NAOMI,JOSIE,FIONA,CLAUDIA,278,290,1,NaN,NaN,4.95251184655353,0.662909492501058,0,1,2
1,1,1,4,2,2,2,MICHAEL,14,22,4187,3,SPENCER,TIMOTHY,LEWIS,CALLUM,3569,4281,1,NaN,NaN,6.12511882628314,2.24115307466127,2,0,2
1,1,1,4,3,2,3,NAOMI,49,75,766,2,SARAH,NADIA,ROBYN,BETHAN,683,825,1,NaN,NaN,2.36812264670152,0.0428955397801474,0,0,4
1,1,1,4,4,2,3,LAURA,13,17,3582,16,NIKITA,MARTHA,ABIGAIL,BETHANY,2595,4271,0,1,0,5.17392924148589,1.64659228431992,3,0,3
1,1,1,4,5,2,1,WILLIAM,13,21,4269,1,STEFAN,SPENCER,OLIVER,GEORGE,3655,4287,0,0,1,8.4317435346311,5.365056297509,2,0,2
1,1,1,4,6,2,2,TIMOTHY,50,82,691,9,FERGUS,CRAIG,DECLAN,CURTIS,680,757,0,0,1,5.93861803377513,2.98170075123198,2,0,2
1,1,1,4,7,2,4,SARAH,14,18,3111,4,MARTHA,HEATHER,ELEANOR,GEORGIA,2555,3723,1,NaN,NaN,5.09125138062518,1.28203893301543,3,0,3
1,1,1,4,8,2,4,HEATHER,50,78,713,8,JOSIE,NAOMI,YASMIN,KELLY,661,789,0,0,1,4.1041239782935,1.62850935640745,3,0,2
1,1,1,4,9,2,2,FERGUS,122,243,120,10,TIMOTHY,STEFAN,BARNABY,BOBBY,113,126,1,NaN,NaN,4.89905143273063,1.64074711245485,0,1,3
1,1,1,4,10,2,4,NIKITA,86,155,284,13,LAURA,SARAH,CIARA,JENNA,276,289,1,NaN,NaN,3.44285041291732,0.939195189974271,3,0,4
1,1,1,4,11,2,4,JOSIE,122,215,197,14,HEATHER,NIKITA,HEIDI,SHANICE,193,200,0,0,1,4.31176022754516,0.271435902337544,1,0,2
1,1,1,4,12,2,3,MARTHA,121,214,198,11,NADIA,LAURA,JESSIE,MATILDA,194,200,0,0,1,3.54427698929794,0.985420570010319,1,0,2
1,1,1,4,13,2,1,MILES,85,154,223,6,CRAIG,FERGUS,BRETT,TOMMY,214,247,0,1,0,3.65779620641842,1.15181883843616,2,0,2
1,1,1,4,14,2,1,CRAIG,49,81,705,7,MICHAEL,MILES,AIDAN,SHAUN,680,773,1,NaN,NaN,3.79115175281186,0.0387442810460925,0,0,3
1,1,1,4,15,2,2,STEFAN,86,155,222,5,WILLIAM,MICHAEL,KURTIS,RICKY,214,242,1,NaN,NaN,4.80855537275784,0.0392631507711485,0,0,2
1,1,1,4,16,2,1,SPENCER,121,239,124,15,MILES,WILLIAM,VINCENT,SONNY,117,127,1,NaN,NaN,3.57034546451177,1.28331642830744,1,0,4
1,1,1,5,1,2,3,KATHRYN,53,86,635,12,HOLLY,RHIAN,CLAIRE,ROBYN,564,683,0,1,0,2.70657116896473,0.829074014211074,2,0,3
1,1,1,5,2,2,2,NATHAN,18,27,2744,1,MARCUS,KIERAN,ROBERT,LEWIS,2644,3569,0,1,0,3.66153945995029,1.19239523762371,3,0,3
1,1,1,5,3,2,3,RHIANNA,89,158,276,8,LEANNE,LIBBY,LORNA,FIONA,274,278,1,NaN,NaN,4.72083242703229,0.809966566390358,2,0,3
1,1,1,5,4,2,1,KIERAN,17,26,2882,7,BRIAN,SIMON,ANDREW,OLIVER,2676,3655,0,1,0,4.39702402474359,0.811964230146259,0,1,2
1,1,1,5,5,2,1,MARCUS,53,85,674,9,KIERAN,BRIAN,ETHAN,AIDAN,604,680,1,NaN,NaN,4.9869447312085,0.0367081601871178,0,0,2
1,1,1,5,6,2,4,LEANNE,54,88,616,11,LIBBY,OLIVIA,IMOGEN,YASMIN,555,661,0,1,0,7.17630666855257,3.19204972498119,4,1,3
1,1,1,5,7,2,3,HOLLY,17,23,2498,6,RHIAN,LEANNE,ALICE,ABIGAIL,2357,2595,0,0,1,8.23765919124708,6.2501583348494,3,1,1
1,1,1,5,8,2,4,OLIVIA,18,24,2456,2,KATHRYN,HOLLY,RACHEL,ELEANOR,2105,2555,1,NaN,NaN,4.11146657180507,0.664585378952324,1,0,4
1,1,1,5,9,2,4,LIBBY,126,220,191,5,RHIANNA,FRANCES,ALISON,HEIDI,181,193,1,NaN,NaN,4.0598367737839,0.524384176358581,1,0,4
1,1,1,5,10,2,1,TRAVIS,89,165,205,10,SIMON,DARYL,GABRIEL,BRETT,189,214,1,NaN,NaN,6.21016930718906,2.08857891568914,2,0,1
1,1,1,5,11,2,4,FRANCES,90,161,274,15,OLIVIA,KATHRYN,SABRINA,CIARA,272,276,1,NaN,NaN,8.18635988351889,4.14178665459622,4,2,1
1,1,1,5,12,2,3,RHIAN,125,219,192,14,FRANCES,RHIANNA,JULIA,JESSIE,184,194,1,NaN,NaN,2.4353386684088,0.0458155720261857,0,0,4
1,1,1,5,13,2,1,BRIAN,125,251,113,3,LUCAS,TRAVIS,LOGAN,VINCENT,111,117,1,NaN,NaN,4.77173754980322,2.22385791561101,2,0,2
1,1,1,5,14,2,2,LUCAS,90,169,202,4,NATHAN,MARCUS,HARLEY,KURTIS,186,214,1,NaN,NaN,3.77848616207484,0.0366132193012163,0,0,3
1,1,1,5,15,2,2,DARYL,126,257,111,16,TRAVIS,LUCAS,RUSSELL,BARNABY,111,113,0,1,0,2.65340609336272,0.541069731116295,2,0,2
1,1,1,5,16,2,2,SIMON,54,87,656,13,DARYL,NATHAN,ZACHARY,DECLAN,574,680,1,NaN,NaN,4.10080074798316,1.30795357993338,2,0,3
1,1,1,6,1,1,2,PHILIP,58,103,481,16,BRADLEY,DAVID,NIALL,ZACHARY,462,574,1,NaN,NaN,3.58906774094794,0.629905227455311,1,0,4
1,1,1,6,2,1,2,DAVID,22,32,2517,12,PHILIP,JUSTIN,JACOB,ROBERT,2249,2644,1,NaN,NaN,6.10661136859562,4.9739901117282,3,1,2
1,1,1,6,3,1,4,MOLLY,22,29,2026,5,ISOBEL,AMANDA,NATASHA,RACHEL,1751,2105,1,NaN,NaN,3.56296140956692,0.715229113935493,2,0,3
1,1,1,6,4,1,4,ISOBEL,58,94,522,2,PAIGE,MOLLY,STACEY,IMOGEN,509,555,0,1,0,5.12934729969129,2.2994945300743,0,1,2
1,1,1,6,5,1,3,PAIGE,21,28,2052,10,MOLLY,POPPY,ELLIE,ALICE,1900,2357,0,1,0,5.44968975975644,4.02498807222582,5,2,2
1,1,1,6,6,1,3,BROOKE,93,166,269,11,JEMIMA,MARYAM,CHARLEY,LORNA,256,274,0,1,0,4.49542150727939,0.0331073181005195,0,0,2
1,1,1,6,7,1,1,BRADLEY,21,31,2557,1,DAVID,COREY,AARON,ANDREW,2511,2676,1,NaN,NaN,3.53800698718987,0.0356367707718164,0,0,2
1,1,1,6,8,1,3,POPPY,57,92,537,6,MARYAM,JEMIMA,MARIA,CLAIRE,511,564,0,1,0,5.05113676644396,1.35457945405506,2,0,1
1,1,1,6,9,1,2,JUSTIN,94,181,182,15,WESLEY,BRADLEY,GAVIN,HARLEY,176,186,0,1,0,4.50516015558969,1.12839158170391,3,0,1
1,1,1,6,10,1,4,MARYAM,130,229,176,4,POPPY,ISOBEL,ALANA,ALISON,170,181,1,NaN,NaN,4.88768016232643,2.51614355051424,3,0,1
1,1,1,6,11,1,1,COREY,57,101,527,14,JEREMY,ALBERT,ISAAC,ETHAN,480,604,0,1,0,8.63055388978682,5.11660179041792,5,6,2
1,1,1,6,12,1,1,WESLEY,93,178,185,7,ALBERT,JEREMY,CALEB,GABRIEL,177,189,0,1,0,4.4025612398982,1.21221954887733,3,0,2
1,1,1,6,13,1,4,AMANDA,94,170,264,9,BROOKE,PAIGE,ELISE,SABRINA,253,272,1,NaN,NaN,5.35990966204554,0.549301944323815,0,1,2
1,1,1,6,14,1,1,ALBERT,129,261,110,8,JUSTIN,WESLEY,STANLEY,LOGAN,108,111,0,0,1,6.09633522294462,4.53027591737919,4,3,2
1,1,1,6,15,1,3,JEMIMA,129,228,177,13,AMANDA,BROOKE,SASKIA,JULIA,171,184,1,NaN,NaN,4.97795629594475,1.89412983099464,2,0,2
1,1,1,6,16,1,2,JEREMY,130,265,108,3,COREY,PHILIP,USMAN,RUSSELL,106,111,1,NaN,NaN,2.42990841215942,0.040704088518396,0,0,4
1,1,1,7,1,1,4,NICOLE,26,36,1679,5,KATRINA,CHELSEA,GRACE,NATASHA,1421,1751,0,1,0,8.10514459258411,3.5505827445304,1,0,1
1,1,1,7,2,1,3,ALICIA,61,98,504,10,KELSEY,TANYA,TAMARA,MARIA,397,511,0,1,0,6.53039459348656,3.84347678220365,3,0,3
1,1,1,7,3,1,2,MARTIN,62,109,435,16,GLENN,FRANCIS,HARVEY,NIALL,401,462,0,1,0,4.76404313440435,0.443624661536887,0,1,3
1,1,1,7,4,1,3,MADISON,133,235,169,14,INDIA,NICOLE,MELANIE,SASKIA,166,171,0,1,0,4.75365582376253,2.48989030125085,1,1,2
1,1,1,7,5,1,4,KELSEY,62,107,438,12,TANYA,KATRINA,FREYA,STACEY,394,509,1,NaN,NaN,6.10691902495455,0.0441964698256925,0,0,3
1,1,1,7,6,1,2,ASHLEY,26,40,1874,4,FRANCIS,CHARLIE,CAMERON,JACOB,1791,2249,0,0,1,5.32021627284121,2.14871283026878,3,0,2
1,1,1,7,7,1,3,KATRINA,97,177,251,3,NICOLE,INDIA,BILLIE,CHARLEY,242,256,1,NaN,NaN,3.40534847497474,1.38301814568695,3,0,3
1,1,1,7,8,1,3,CHELSEA,25,34,1735,6,MADISON,ALICIA,AMBER,ELLIE,1422,1900,1,NaN,NaN,3.90276974916924,1.09950372378808,3,0,4
1,1,1,7,9,1,2,ROWAN,98,188,172,15,CHARLIE,MARTIN,JESSE,GAVIN,161,176,0,1,0,7.14677014818881,3.01596538629383,1,0,2
1,1,1,7,10,1,2,GLENN,134,278,100,1,ELLIS,JULIAN,DAMIEN,USMAN,90,106,0,1,0,4.31292295258027,1.0832988822367,3,0,2
1,1,1,7,11,1,1,JULIAN,133,274,102,13,ROWAN,ASHLEY,JASPER,STANLEY,94,108,0,1,0,3.53322208835743,1.03459963202477,1,0,1
1,1,1,7,12,1,1,ELLIS,61,107,443,9,MARTIN,GLENN,STUART,ISAAC,405,480,0,0,1,5.07046684459783,2.30596432858147,3,0,2
1,1,1,7,13,1,1,FRANCIS,97,188,172,7,ASHLEY,ROWAN,ARCHIE,CALEB,169,177,1,NaN,NaN,4.91900313307997,1.49450004019309,0,1,1
1,1,1,7,14,1,4,TANYA,134,235,169,11,ALICIA,MADISON,SAFFRON,ALANA,166,170,1,NaN,NaN,5.11994214612059,0.743993789190426,2,0,2
1,1,1,7,15,1,1,CHARLIE,25,38,1912,8,JULIAN,ELLIS,REECE,AARON,1811,2511,0,1,0,5.21635909040924,1.74317777855322,0,1,1
1,1,1,7,16,1,4,INDIA,98,180,245,2,CHELSEA,KELSEY,ELISHA,ELISE,240,253,1,NaN,NaN,2.11309138231445,0.427172553259879,0,1,4
1,1,1,8,1,0,2,ALFIE,66,119,372,3,MAXWELL,FREDDIE,DARREN,HARVEY,343,401,0,1,0,3.76972876966465,1.30620799015742,2,0,4
1,1,1,8,2,0,4,JODIE,30,43,1354,8,NADINE,NATALIE,ABBIE,GRACE,1297,1421,0,1,0,4.10877728206106,0.0360456773778424,0,0,1
1,1,1,8,3,0,3,NATALIE,29,42,1393,5,ANNIE,SIMRAN,LOUISE,AMBER,1309,1422,1,NaN,NaN,3.89313325250987,1.22300735372119,3,0,3
1,1,1,8,4,0,4,CARLY,102,187,235,12,BROGAN,JODIE,ANTONIA,ELISHA,234,240,0,1,0,4.68523711781017,1.57568318361882,0,1,2
1,1,1,8,5,0,1,CHARLES,29,44,1738,10,GARETH,ROBIN,SCOTT,REECE,1632,1811,1,NaN,NaN,5.07736117311288,2.37386807065923,2,1,2
1,1,1,8,6,0,4,NIAMH,66,120,381,16,CARLY,BROGAN,JOANNA,FREYA,374,394,0,1,0,5.02819382841699,1.59306997864041,2,1,2
1,1,1,8,7,0,2,EDWARD,30,45,1658,13,FRANK,CHARLES,DOMINIC,CAMERON,1519,1791,0,1,0,4.35354051261675,2.94008541072253,3,1,2
1,1,1,8,8,0,1,GARETH,65,117,373,6,ROBIN,FRANK,TAYLOR,STUART,354,405,0,1,0,4.8720341498265,2.59756795188878,1,0,1
1,1,1,8,9,0,2,MAXWELL,102,200,160,9,FREDDIE,EDWARD,JARED,JESSE,158,161,1,NaN,NaN,2.97765494894702,0.0398135674186051,0,0,4
1,1,1,8,10,0,3,ANNIE,65,119,389,2,SIMRAN,NADINE,ANNABEL,TAMARA,380,397,1,NaN,NaN,7.38228956481908,1.82186992629431,3,0,2
1,1,1,8,11,0,1,ROBIN,101,198,161,1,CHARLES,ALFIE,REUBEN,ARCHIE,160,169,1,NaN,NaN,4.21368632500526,0.0338494189782068,0,0,4
1,1,1,8,12,0,2,FRANK,138,292,86,11,EDWARD,MAXWELL,JIMMY,DAMIEN,80,90,1,NaN,NaN,3.31613381614443,1.17454876052216,2,0,3
1,1,1,8,13,0,3,BROGAN,137,241,165,15,NIAMH,ANNIE,SHONA,MELANIE,165,166,1,NaN,NaN,4.16899171611294,2.12216063751839,0,1,2
1,1,1,8,14,0,3,SIMRAN,101,184,240,4,NATALIE,NIAMH,SADIE,BILLIE,235,242,1,NaN,NaN,5.01409871678334,3.07472325942945,2,0,3
1,1,1,8,15,0,4,NADINE,138,241,165,14,JODIE,CARLY,MIRIAM,SAFFRON,161,166,1,NaN,NaN,4.01976302044932,3.01724468416069,3,1,2
1,1,1,8,16,0,1,FREDDIE,137,290,89,7,ALFIE,GARETH,WAYNE,JASPER,84,94,0,1,0,3.95540904486552,0.464268588926643,0,1,2
1,1,1,9,1,0,3,MELISSA,33,46,1282,15,CARLA,SIMONE,KIRSTY,LOUISE,1202,1309,0,1,0,3.67679369112011,0.0422823301050812,0,0,2
1,1,1,9,2,0,4,CARLA,106,192,230,12,MELISSA,BRYONY,KIERA,ANTONIA,221,234,0,1,0,4.17490178428125,0.905752875027247,3,0,4
1,1,1,9,3,0,3,ALISHA,69,128,363,7,SELINA,ESTHER,ELOISE,ANNABEL,351,380,0,1,0,3.19017494353466,0.617883191560395,0,1,3
1,1,1,9,4,0,1,HAYDEN,69,124,340,11,JONAH,ADRIAN,MASON,TAYLOR,320,354,0,1,0,4.13363556168042,2.44028731028084,2,3,2
1,1,1,9,5,0,1,BRANDON,33,53,1337,2,BLAKE,RAYMOND,HENRY,SCOTT,1135,1632,1,NaN,NaN,3.16700907459017,0.0427798682358116,0,0,2
1,1,1,9,6,0,4,BRYONY,70,129,362,14,GEMMA,ALISHA,TIFFANY,JOANNA,346,374,1,NaN,NaN,5.58703582640737,0.992287257337011,3,0,3
1,1,1,9,7,0,4,GEMMA,34,50,1261,3,ALISHA,CARLA,JASMINE,ABBIE,1145,1297,1,NaN,NaN,3.51514607074205,0.0463269306346774,0,0,4
1,1,1,9,8,0,3,ESTHER,105,191,231,9,SIMONE,GEMMA,KIRSTEN,SADIE,225,235,0,1,0,3.91219082626048,0.0381701292935759,0,0,2
1,1,1,9,9,0,4,SIMONE,142,248,158,10,ESTHER,SELINA,NANCY,MIRIAM,156,161,0,1,0,5.33896408719011,0.946293821441941,3,0,2
1,1,1,9,10,0,1,JONAH,141,312,78,8,GREGORY,BRANDON,ANTON,WAYNE,76,84,0,1,0,5.28419763559941,0.871299860416912,3,0,2
1,1,1,9,11,0,2,DYLAN,34,57,1186,1,HAYDEN,BLAKE,PETER,DOMINIC,1128,1519,1,NaN,NaN,6.75560361356474,3.43521518527996,3,0,1
1,1,1,9,12,0,3,SELINA,141,248,158,13,BRYONY,MELISSA,PARIS,SHONA,157,165,1,NaN,NaN,5.61042072018608,0.941149289021268,1,1,2
1,1,1,9,13,0,2,RAYMOND,142,312,78,5,ADRIAN,JONAH,COLIN,JIMMY,76,80,0,1,0,3.22723192127887,0.440438434481621,1,0,3
1,1,1,9,14,0,1,ADRIAN,105,204,155,16,RAYMOND,DYLAN,FELIX,REUBEN,149,160,0,0,1,5.29801092902198,3.63140385085717,3,1,1
1,1,1,9,15,0,2,GREGORY,70,125,339,4,DYLAN,HAYDEN,GRANT,DARREN,307,343,0,0,1,6.45311544206925,1.54843666066881,3,0,1
1,1,1,9,16,0,2,BLAKE,106,207,154,6,BRANDON,GREGORY,CALVIN,JARED,147,158,1,NaN,NaN,4.65489450155292,1.14750984567218,0,1,2
2,1,1,1,1,2,3,MAISIE,73,135,335,10,SOPHIE,CASEY,SASHA,ELOISE,333,351,1,NaN,NaN,4.0498748945538,1.5868828992825,1,0,4
2,1,1,1,2,2,1,DANIEL,1,2,10338,7,DOUGLAS,ROBBIE,JAMES,SAMUEL,9385,6161,0,1,0,8.31213668594137,1.89006600179709,3,0,2
2,1,1,1,3,2,2,LOUIS,38,61,1100,9,THOMAS,ALFRED,ANTHONY,PETER,1045,1128,1,NaN,NaN,2.70354958600365,0.451535397907719,1,0,3
2,1,1,1,4,2,3,SOPHIE,1,1,7087,6,CASEY,KERRY,JESSICA,REBECCA,6711,5828,1,NaN,NaN,4.17495526350103,0.953412883449346,2,0,1
2,1,1,1,5,2,3,HAYLEY,37,57,1088,15,CARYS,HARRIET,LYDIA,KIRSTY,1009,1202,0,0,1,4.6109729395248,1.52525546913967,2,0,3
2,1,1,1,6,2,2,THOMAS,2,3,9603,3,OSCAR,STEPHEN,JOSHUA,JORDAN,7887,5750,1,NaN,NaN,4.62931455112994,0.0361093720421195,0,0,3
2,1,1,1,7,2,4,CHLOE,2,2,6824,11,MAISIE,HAYLEY,EMILY,MEGAN,6415,4948,0,0,1,4.64754289458506,0.456987586803734,0,1,2
2,1,1,1,8,2,2,ROBBIE,74,130,302,4,LOUIS,OSCAR,TOBIAS,GRANT,296,307,0,1,0,4.98751768120565,0.663750139763579,1,0,3
2,1,1,1,9,2,3,CARYS,109,199,217,2,HAYLEY,SOPHIE,ELENA,KIRSTEN,213,225,1,NaN,NaN,3.44254395808093,0.56452432833612,1,0,4
2,1,1,1,10,2,1,OSCAR,73,128,307,16,DANIEL,DOUGLAS,LLOYD,MASON,299,320,0,1,0,5.88775827828795,2.15774152521044,2,0,3
2,1,1,1,11,2,4,CASEY,110,201,215,1,KERRY,CHLOE,VANESSA,KIERA,213,221,1,NaN,NaN,4.15157097065821,0.0435472067911178,0,0,4
2,1,1,1,12,2,4,HARRIET,38,60,1046,8,CHLOE,CARYS,AMELIA,JASMINE,929,1145,0,0,1,8.33188708778471,1.64180197729729,2,0,2
2,1,1,1,13,2,2,DOUGLAS,110,218,142,13,ROBBIE,THOMAS,JAMAL,CALVIN,139,147,0,1,0,3.41723230597563,0.0434495615772903,0,0,1
2,1,1,1,14,2,1,STEPHEN,37,60,1122,12,ALFRED,LOUIS,RICHARD,HENRY,1089,1135,0,1,0,3.60116999573074,1.30009632301517,1,0,3
2,1,1,1,15,2,4,KERRY,74,136,333,14,HARRIET,MAISIE,SIOBHAN,TIFFANY,332,346,0,1,0,3.88962795189582,0.0323694231919944,0,0,3
2,1,1,1,16,2,1,ALFRED,109,218,142,5,STEPHEN,DANIEL,DUNCAN,FELIX,139,149,1,NaN,NaN,8.67955268453807,3.42483328282833,1,0,2
2,1,1,2,1,0,3,ELLEN,41,63,929,6,PHOEBE,POLLY,CAITLIN,LYDIA,906,1009,1,NaN,NaN,4.74399318825454,2.62337864446454,0,1,3
2,1,1,2,2,0,3,LAUREN,5,5,6299,2,ELLEN,AISHA,REBECCA,JESSICA,5828,6711,0,1,0,4.9911918323487,1.2001058771275,3,0,3
2,1,1,2,3,0,1,MORGAN,77,133,294,7,PERRY,MATTHEW,FRASER,LLOYD,278,299,0,1,0,3.95342970825732,1.49992308602668,1,0,4
2,1,1,2,4,0,1,PATRICK,41,66,1039,9,TYLER,PERRY,JASON,RICHARD,1001,1089,1,NaN,NaN,5.23872877797112,0.462882031686604,0,1,3
2,1,1,2,5,0,4,HANNAH,6,6,5916,15,AISHA,PHOEBE,MEGAN,EMILY,4948,6415,0,0,1,4.0537776844576,0.956448587123305,2,0,3
2,1,1,2,6,0,2,JOSEPH,6,8,6193,5,MORGAN,TYLER,JORDAN,JOSHUA,5750,7887,0,0,1,4.41658845054917,0.508402566192672,1,0,3
2,1,1,2,7,0,2,TYLER,42,67,1007,4,JOSEPH,CIARAN,ELLIOT,ANTHONY,919,1045,0,1,0,3.63925209455192,0.544800365809351,1,0,3
2,1,1,2,8,0,1,MATTHEW,5,6,7426,1,PATRICK,MORGAN,SAMUEL,JAMES,6161,9385,0,1,0,3.44487030967139,0.845281860092655,1,0,3
2,1,1,2,9,0,1,PERRY,113,220,139,11,CIARAN,DAMON,REGAN,DUNCAN,136,139,0,1,0,6.34980867616832,1.09283292689361,3,0,3
2,1,1,2,10,0,3,AISHA,77,139,328,8,POLLY,LAUREN,SHAUNA,SASHA,316,333,0,1,0,2.27114386903122,0.0331373626831919,0,0,3
2,1,1,2,11,0,4,SUMMER,114,206,203,13,LAUREN,HANNAH,SINEAD,VANESSA,202,213,0,1,0,3.98234130162746,1.90645020967349,2,1,3
2,1,1,2,12,0,2,DAMON,114,226,136,10,MATTHEW,JOSEPH,WARREN,JAMAL,136,139,0,1,0,3.6343710529618,1.89106558472849,2,1,3
2,1,1,2,13,0,4,MILLIE,78,140,324,14,SUMMER,ELLEN,SALLY,SIOBHAN,309,332,0,1,0,6.0513810289558,1.57303986186162,3,0,3
2,1,1,2,14,0,4,PHOEBE,42,65,910,16,HANNAH,MILLIE,ROSIE,AMELIA,879,929,1,NaN,NaN,3.54168233973905,0.739841028116643,0,1,4
2,1,1,2,15,0,2,CIARAN,78,136,278,3,DAMON,PATRICK,KEVIN,TOBIAS,250,296,0,1,0,4.62749985884875,2.10161315323785,2,2,4
2,1,1,2,16,0,3,POLLY,113,204,212,12,MILLIE,SUMMER,DEANNA,ELENA,202,213,1,NaN,NaN,3.02796278544702,0.499788486165926,1,0,4
2,1,1,3,1,1,3,AIMEE,45,70,876,12,SHANNON,APRIL,BETHAN,CAITLIN,825,906,1,NaN,NaN,4.31992844585329,0.467699979664758,0,1,3
2,1,1,3,2,1,4,KATIE,10,12,4337,7,SHELBY,SHANNON,GEORGIA,MEGAN,3723,4948,0,0,1,5.04795684874989,1.88061037333682,3,0,3
2,1,1,3,3,1,3,HELENA,81,145,308,3,DAISY,KATIE,CLAUDIA,SHAUNA,290,316,0,0,1,4.0133929697331,1.05809268634766,3,0,3
2,1,1,3,4,1,2,HARRY,10,17,4434,11,JEROME,CONNOR,CALLUM,JORDAN,4281,5750,1,NaN,NaN,3.03535675536841,1.68957976042293,1,1,3
2,1,1,3,5,1,4,APRIL,82,146,300,15,KATIE,HELENA,JENNA,SALLY,289,309,1,NaN,NaN,2.87042315979488,1.17080490617082,3,0,4
2,1,1,3,6,1,3,SHANNON,9,11,4649,5,EBONY,SHELBY,BETHANY,REBECCA,4271,5828,0,1,0,2.96081316238269,0.619840295054018,1,0,3
2,1,1,3,7,1,4,DAISY,46,71,828,6,APRIL,EBONY,KELLY,ROSIE,789,879,1,NaN,NaN,3.48319396656007,0.943926609586924,2,0,3
2,1,1,3,8,1,1,CONNOR,9,13,5009,1,ARTHUR,JEROME,GEORGE,SAMUEL,4287,6161,1,NaN,NaN,3.88087055948563,0.93836505850777,2,0,2
2,1,1,3,9,1,1,JEROME,117,230,135,10,TRISTAN,BILLY,SONNY,REGAN,127,136,1,NaN,NaN,2.74124951777048,1.39475295552984,0,1,3
2,1,1,3,10,1,1,TRISTAN,81,141,250,16,SHANE,HARRY,TOMMY,FRASER,247,278,0,0,1,4.11463176761754,0.232487017754465,0,1,2
2,1,1,3,11,1,2,ARTHUR,118,234,129,13,BILLY,SHANE,BOBBY,WARREN,126,136,1,NaN,NaN,4.86607360676862,0.348015015013516,1,0,3
2,1,1,3,12,1,1,BILLY,45,71,914,4,CONNOR,ANGUS,SHAUN,JASON,773,1001,1,NaN,NaN,2.28273296263069,0.764339373912662,1,0,3
2,1,1,3,13,1,2,ANGUS,82,144,247,2,HARRY,TRISTAN,RICKY,KEVIN,242,250,1,NaN,NaN,4.87947739264928,1.12980337627232,3,0,4
2,1,1,3,14,1,4,EBONY,118,211,200,8,AIMEE,DAISY,SHANICE,SINEAD,200,202,1,NaN,NaN,5.53713719686493,1.87336272094399,2,0,3
2,1,1,3,15,1,3,SHELBY,117,209,201,14,HELENA,AIMEE,MATILDA,DEANNA,200,202,1,NaN,NaN,5.25178074184805,3.45735503197648,3,5,3
2,1,1,3,16,1,2,SHANE,46,74,846,9,ANGUS,ARTHUR,CURTIS,ELLIOT,757,919,0,1,0,3.96095587429591,1.0718981679529,2,0,4
2,1,1,4,1,0,4,SARAH,14,18,3111,10,NIKITA,NADIA,ELEANOR,GEORGIA,2555,3723,1,NaN,NaN,1.53091676812619,0.796650811098516,1,0,3
2,1,1,4,2,0,1,WILLIAM,13,21,4269,1,MICHAEL,FERGUS,OLIVER,GEORGE,3655,4287,0,0,1,1.50896229664795,0.432365156942979,1,0,2
2,1,1,4,3,0,4,NIKITA,86,155,284,11,NAOMI,MARTHA,CIARA,JENNA,276,289,0,1,0,0.716465147677809,0.589404240017757,2,0,3
2,1,1,4,4,0,4,HEATHER,50,78,713,8,MARTHA,SARAH,YASMIN,KELLY,661,789,0,1,0,1.64981997292489,0.0391543894074857,0,0,3
2,1,1,4,5,0,3,LAURA,13,17,3582,9,SARAH,JOSIE,ABIGAIL,BETHANY,2595,4271,0,0,1,1.55761888343841,1.31903732358478,2,0,3
2,1,1,4,6,0,3,NAOMI,49,75,766,4,NADIA,LAURA,ROBYN,BETHAN,683,825,1,NaN,NaN,1.92595124128275,0.798980767838657,2,0,2
2,1,1,4,7,0,2,MICHAEL,14,22,4187,2,STEFAN,MILES,LEWIS,CALLUM,3569,4281,0,0,1,1.50721580535173,1.17009765701368,3,0,2
2,1,1,4,8,0,1,CRAIG,49,81,705,6,MILES,WILLIAM,AIDAN,SHAUN,680,773,0,0,1,2.08153977245092,1.55914845271036,2,2,3
2,1,1,4,9,0,2,TIMOTHY,50,82,691,13,SPENCER,MICHAEL,DECLAN,CURTIS,680,757,0,1,0,1.79172380152158,0.348390872590244,1,0,3
2,1,1,4,10,0,1,SPENCER,121,239,124,12,WILLIAM,TIMOTHY,VINCENT,SONNY,117,127,0,1,0,0.902153535047546,0.488643751945347,0,1,3
2,1,1,4,11,0,3,MARTHA,121,214,198,5,LAURA,HEATHER,JESSIE,MATILDA,194,200,1,NaN,NaN,2.38403725763783,1.89278173097409,1,2,3
2,1,1,4,12,0,2,FERGUS,122,243,120,7,TIMOTHY,STEFAN,BARNABY,BOBBY,113,126,0,0,1,2.93075536866672,2.55988995288499,3,0,3
2,1,1,4,13,0,1,MILES,85,154,223,16,FERGUS,CRAIG,BRETT,TOMMY,214,247,0,1,0,2.32978066266514,0.870068633928895,3,0,4
2,1,1,4,14,0,3,NADIA,85,153,285,15,JOSIE,NAOMI,FIONA,CLAUDIA,278,290,0,0,1,1.44499619631097,0.347076722886413,0,1,1
2,1,1,4,15,0,2,STEFAN,86,155,222,14,CRAIG,SPENCER,KURTIS,RICKY,214,242,1,NaN,NaN,3.44122560229152,1.39512220327742,2,1,2
2,1,1,4,16,0,4,JOSIE,122,215,197,3,HEATHER,NIKITA,HEIDI,SHANICE,193,200,0,1,0,1.92154009686783,1.18611652241088,3,0,3
2,1,1,5,1,2,2,NATHAN,18,27,2744,5,KIERAN,MARCUS,ROBERT,LEWIS,2644,3569,1,NaN,NaN,2.15076427371241,1.1221987940371,2,0,4
2,1,1,5,2,2,1,KIERAN,17,26,2882,15,TRAVIS,SIMON,ANDREW,OLIVER,2676,3655,0,0,1,0.864490558160469,0.448509909212589,0,1,2
2,1,1,5,3,2,3,KATHRYN,53,86,635,16,FRANCES,LIBBY,CLAIRE,ROBYN,564,683,0,1,0,0.696538684889674,0.313374522607774,1,0,2
2,1,1,5,4,2,2,SIMON,54,87,656,11,NATHAN,KIERAN,ZACHARY,DECLAN,574,680,0,0,1,5.22976287617348,2.66500059491955,4,1,3
2,1,1,5,5,2,3,HOLLY,17,23,2498,13,RHIANNA,LEANNE,ALICE,ABIGAIL,2357,2595,1,NaN,NaN,3.82726623211056,1.22123171947896,3,0,2
2,1,1,5,6,2,4,OLIVIA,18,24,2456,3,HOLLY,KATHRYN,RACHEL,ELEANOR,2105,2555,0,1,0,1.92246997635812,0.475202109897509,0,1,3
2,1,1,5,7,2,1,TRAVIS,89,165,205,12,SIMON,NATHAN,GABRIEL,BRETT,189,214,1,NaN,NaN,2.62227240321226,0.336261577671394,0,1,3
2,1,1,5,8,2,1,MARCUS,53,85,674,4,LUCAS,DARYL,ETHAN,AIDAN,604,680,0,0,1,1.56459102709778,0.0361424209550023,0,0,3
2,1,1,5,9,2,4,FRANCES,90,161,274,7,LIBBY,RHIAN,SABRINA,CIARA,272,276,0,0,1,2.15934049757197,0.451826529810205,1,0,3
2,1,1,5,10,2,1,BRIAN,125,251,113,6,MARCUS,LUCAS,LOGAN,VINCENT,111,117,0,0,1,2.36264942656271,0.984401457943022,0,1,3
2,1,1,5,11,2,2,LUCAS,90,169,202,1,DARYL,BRIAN,HARLEY,KURTIS,186,214,0,1,0,2.82649228395894,1.59366996889003,2,0,2
2,1,1,5,12,2,3,RHIAN,125,219,192,10,KATHRYN,FRANCES,JULIA,JESSIE,184,194,0,0,1,2.21345948847011,1.05487641459331,3,0,2
2,1,1,5,13,2,4,LEANNE,54,88,616,9,OLIVIA,HOLLY,IMOGEN,YASMIN,555,661,0,1,0,1.85710680368356,0.0443947641178966,0,0,2
2,1,1,5,14,2,3,RHIANNA,89,158,276,2,LEANNE,OLIVIA,LORNA,FIONA,274,278,0,1,0,2.6392662152648,1.50648692413233,3,0,3
2,1,1,5,15,2,4,LIBBY,126,220,191,14,RHIAN,RHIANNA,ALISON,HEIDI,181,193,0,0,1,1.34430060442537,0.278903781669214,0,1,2
2,1,1,5,16,2,2,DARYL,126,257,111,8,BRIAN,TRAVIS,RUSSELL,BARNABY,111,113,1,NaN,NaN,1.91220464673825,0.43563791224733,0,1,2
2,1,1,6,1,2,1,BRADLEY,21,31,2557,2,COREY,PHILIP,AARON,ANDREW,2511,2676,1,NaN,NaN,1.73318525357172,0.0425386102870107,0,0,2
2,1,1,6,2,2,3,BROOKE,93,166,269,13,JEMIMA,MARYAM,CHARLEY,LORNA,256,274,0,1,0,2.25498259207234,0.276867961278185,1,0,2
2,1,1,6,3,2,4,ISOBEL,58,94,522,6,MOLLY,BROOKE,STACEY,IMOGEN,509,555,1,NaN,NaN,4.05124552780762,0.732506847009063,2,0,3
2,1,1,6,4,2,2,PHILIP,58,103,481,16,DAVID,WESLEY,NIALL,ZACHARY,462,574,1,NaN,NaN,1.72872063005343,1.08849539165385,1,1,1
2,1,1,6,5,2,4,MOLLY,22,29,2026,1,ISOBEL,POPPY,NATASHA,RACHEL,1751,2105,0,0,1,5.41731943492778,4.03562415204942,3,4,2
2,1,1,6,6,2,2,DAVID,22,32,2517,11,PHILIP,COREY,JACOB,ROBERT,2249,2644,1,NaN,NaN,1.14139307080768,0.0314419472124428,0,0,4
2,1,1,6,7,2,3,POPPY,57,92,537,15,PAIGE,AMANDA,MARIA,CLAIRE,511,564,1,NaN,NaN,2.74351908499375,2.09902541409247,2,3,4
2,1,1,6,8,2,3,PAIGE,21,28,2052,10,POPPY,ISOBEL,ELLIE,ALICE,1900,2357,1,NaN,NaN,5.01917655020952,4.21907031256706,4,1,2
2,1,1,6,9,2,4,AMANDA,94,170,264,12,BROOKE,JEMIMA,ELISE,SABRINA,253,272,1,NaN,NaN,1.72396367252804,0.0461412551812828,0,0,2
2,1,1,6,10,2,1,COREY,57,101,527,8,BRADLEY,JUSTIN,ISAAC,ETHAN,480,604,0,1,0,1.5625948656816,0.484082384733483,0,1,2
2,1,1,6,11,2,3,JEMIMA,129,228,177,5,MARYAM,MOLLY,SASKIA,JULIA,171,184,0,1,0,3.71416313247755,2.28632389008999,2,1,3
2,1,1,6,12,2,4,MARYAM,130,229,176,14,AMANDA,PAIGE,ALANA,ALISON,170,181,0,0,1,2.42096684640273,1.51095184823498,2,0,2
2,1,1,6,13,2,1,ALBERT,129,261,110,3,JEREMY,DAVID,STANLEY,LOGAN,108,111,0,1,0,2.0649843106512,0.589021772611886,0,1,2
2,1,1,6,14,2,2,JEREMY,130,265,108,9,JUSTIN,BRADLEY,USMAN,RUSSELL,106,111,0,1,0,2.03580892598256,0.481567052891478,1,0,2
2,1,1,6,15,2,2,JUSTIN,94,181,182,4,WESLEY,ALBERT,GAVIN,HARLEY,176,186,0,0,1,2.67252405663021,1.3924082769081,3,0,2
2,1,1,6,16,2,1,WESLEY,93,178,185,7,ALBERT,JEREMY,CALEB,GABRIEL,177,189,0,1,0,2.00649233185686,1.16005015047267,1,0,2
2,1,1,7,1,1,3,KATRINA,97,177,251,5,NICOLE,CHELSEA,BILLIE,CHARLEY,242,256,0,0,1,1.20836693327874,0.359536207979545,0,1,1
2,1,1,7,2,1,1,ELLIS,61,107,443,15,CHARLIE,MARTIN,STUART,ISAAC,405,480,0,0,1,1.60107235098258,0.404000074602664,0,1,1
2,1,1,7,3,1,3,CHELSEA,25,34,1735,10,TANYA,MADISON,AMBER,ELLIE,1422,1900,0,0,1,1.44596423231997,0.89116232842207,1,0,1
2,1,1,7,4,1,3,ALICIA,61,98,504,16,CHELSEA,KELSEY,TAMARA,MARIA,397,511,0,0,1,2.52582391235046,1.77117932168767,0,1,1
2,1,1,7,5,1,2,ASHLEY,26,40,1874,14,MARTIN,ELLIS,CAMERON,JACOB,1791,2249,0,1,0,1.69458488607779,0.417972604278475,1,0,1
2,1,1,7,6,1,1,FRANCIS,97,188,172,6,ASHLEY,CHARLIE,ARCHIE,CALEB,169,177,0,1,0,1.41078594210558,0.938164060236886,1,0,1
2,1,1,7,7,1,1,CHARLIE,25,38,1912,13,GLENN,JULIAN,REECE,AARON,1811,2511,0,0,1,1.41006216825917,0.419595011277124,0,1,2
2,1,1,7,8,1,4,NICOLE,26,36,1679,12,KELSEY,ALICIA,GRACE,NATASHA,1421,1751,1,NaN,NaN,1.24195226025768,0.606406164122745,0,1,1
2,1,1,7,9,1,3,MADISON,133,235,169,7,KATRINA,INDIA,MELANIE,SASKIA,166,171,0,1,0,3.0265422782395,0.548289742553607,1,0,1
2,1,1,7,10,1,2,ROWAN,98,188,172,3,JULIAN,ASHLEY,JESSE,GAVIN,161,176,0,0,1,1.11934365821071,0.291995404521003,0,1,2
2,1,1,7,11,1,4,INDIA,98,180,245,2,MADISON,NICOLE,ELISHA,ELISE,240,253,0,0,1,1.67634752904996,0.363725623348728,1,0,3
2,1,1,7,12,1,4,KELSEY,62,107,438,8,INDIA,TANYA,FREYA,STACEY,394,509,0,1,0,2.22586669586599,1.32726833526976,2,0,1
2,1,1,7,13,1,2,GLENN,134,278,100,1,ELLIS,FRANCIS,DAMIEN,USMAN,90,106,0,0,1,6.03300546691753,4.81636005174369,2,3,3
2,1,1,7,14,1,1,JULIAN,133,274,102,9,FRANCIS,ROWAN,JASPER,STANLEY,94,108,0,1,0,1.59366996889003,0.350870451424271,0,1,1
2,1,1,7,15,1,4,TANYA,134,235,169,4,ALICIA,KATRINA,SAFFRON,ALANA,166,170,0,1,0,1.67393224593252,0.767318593803793,2,0,2
2,1,1,7,16,1,2,MARTIN,62,109,435,11,ROWAN,GLENN,HARVEY,NIALL,401,462,0,1,0,2.32770277978852,0.510146052809432,1,0,1
2,1,1,8,1,1,2,EDWARD,30,45,1658,10,MAXWELL,GARETH,DOMINIC,CAMERON,1519,1791,0,1,0,1.9200282539241,0.567907046759501,1,0,1
2,1,1,8,2,1,4,JODIE,30,43,1354,7,CARLY,ANNIE,ABBIE,GRACE,1297,1421,0,0,1,1.9030590786133,0.898764807498083,1,0,1
2,1,1,8,3,1,3,NATALIE,29,42,1393,9,JODIE,NIAMH,LOUISE,AMBER,1309,1422,0,1,0,2.82087665260769,0.291060116840526,0,1,1
2,1,1,8,4,1,2,ALFIE,66,119,372,6,ROBIN,FREDDIE,DARREN,HARVEY,343,401,0,1,0,1.73439995595254,0.741723320679739,0,1,1
2,1,1,8,5,1,1,GARETH,65,117,373,12,ALFIE,CHARLES,TAYLOR,STUART,354,405,0,0,1,1.7335277616512,1.20871124393307,1,0,1
2,1,1,8,6,1,3,ANNIE,65,119,389,13,NIAMH,NATALIE,ANNABEL,TAMARA,380,397,1,NaN,NaN,3.32432757248171,2.13144200737588,2,1,1
2,1,1,8,7,1,4,NIAMH,66,120,381,2,SIMRAN,BROGAN,JOANNA,FREYA,374,394,0,0,1,1.75626880046912,0.874896496534348,2,0,1
2,1,1,8,8,1,1,CHARLES,29,44,1738,1,EDWARD,ALFIE,SCOTT,REECE,1632,1811,0,0,1,3.08717583399266,0.0337463659234345,0,0,2
2,1,1,8,9,1,2,MAXWELL,102,200,160,5,FREDDIE,FRANK,JARED,JESSE,158,161,0,0,1,2.40980288363062,1.31863442598842,2,0,1
2,1,1,8,10,1,4,NADINE,138,241,165,11,ANNIE,SIMRAN,MIRIAM,SAFFRON,161,166,1,NaN,NaN,1.54697288898751,0.431315099122003,0,1,1
2,1,1,8,11,1,1,FREDDIE,137,290,89,4,CHARLES,EDWARD,WAYNE,JASPER,84,94,0,0,1,1.76215843833052,0.399630692088977,1,0,2
2,1,1,8,12,1,3,BROGAN,137,241,165,3,NATALIE,JODIE,SHONA,MELANIE,165,166,0,1,0,1.2823081323877,0.362118538934737,0,1,3
2,1,1,8,13,1,4,CARLY,102,187,235,15,BROGAN,NADINE,ANTONIA,ELISHA,234,240,0,1,0,1.46540637686849,0.786142120370641,1,0,1
2,1,1,8,14,1,2,FRANK,138,292,86,8,GARETH,ROBIN,JIMMY,DAMIEN,80,90,0,0,1,3.2807352989912,0.994193886173889,3,0,1
2,1,1,8,15,1,3,SIMRAN,101,184,240,16,NADINE,CARLY,SADIE,BILLIE,235,242,1,NaN,NaN,2.92432432761416,0.518208814552054,0,1,4
2,1,1,8,16,1,1,ROBIN,101,198,161,14,FRANK,MAXWELL,REUBEN,ARCHIE,160,169,1,NaN,NaN,1.10629019211046,0.354802384739742,1,0,1
2,1,1,9,1,0,4,BRYONY,70,129,362,14,MELISSA,GEMMA,TIFFANY,JOANNA,346,374,0,1,0,1.06095082662068,0.31076605245471,1,0,1
2,1,1,9,2,0,2,DYLAN,34,57,1186,2,ADRIAN,HAYDEN,PETER,DOMINIC,1128,1519,0,0,1,1.18689347524196,0.494815508369356,0,1,2
2,1,1,9,3,0,1,BRANDON,33,53,1337,6,DYLAN,BLAKE,HENRY,SCOTT,1135,1632,1,NaN,NaN,1.11454493878409,0.286679016891867,0,1,1
2,1,1,9,4,0,4,GEMMA,34,50,1261,9,ESTHER,ALISHA,JASMINE,ABBIE,1145,1297,1,NaN,NaN,1.64236501278356,0.712259207852185,0,1,2
2,1,1,9,5,0,3,MELISSA,33,46,1282,16,GEMMA,CARLA,KIRSTY,LOUISE,1202,1309,0,0,1,0.799331688554958,0.384821421001107,0,1,2
2,1,1,9,6,0,2,RAYMOND,142,312,78,5,BLAKE,ADRIAN,COLIN,JIMMY,76,80,0,1,0,1.11170422425494,0.337770416168496,1,0,2
2,1,1,9,7,0,2,GREGORY,70,125,339,3,BRANDON,DYLAN,GRANT,DARREN,307,343,0,1,0,1.6374274874106,0.0360706143546849,0,0,1
2,1,1,9,8,0,2,BLAKE,106,207,154,11,RAYMOND,JONAH,CALVIN,JARED,147,158,1,NaN,NaN,0.960641007171944,0.229991214815527,0,1,2
2,1,1,9,9,0,1,HAYDEN,69,124,340,7,JONAH,RAYMOND,MASON,TAYLOR,320,354,0,0,1,0.832555880071595,0.313088197726756,1,0,1
2,1,1,9,10,0,4,SIMONE,142,248,158,1,CARLA,ESTHER,NANCY,MIRIAM,156,161,0,1,0,3.69871901953593,2.00831603771076,2,0,1
2,1,1,9,11,0,4,CARLA,106,192,230,12,SIMONE,SELINA,KIERA,ANTONIA,221,234,0,1,0,0.997285472694784,0.236468825256452,0,1,1
2,1,1,9,12,0,1,ADRIAN,105,204,155,13,HAYDEN,GREGORY,FELIX,REUBEN,149,160,0,1,0,2.76791738229804,2.02343146293424,3,0,2
2,1,1,9,13,0,3,ESTHER,105,191,231,4,ALISHA,BRYONY,KIRSTEN,SADIE,225,235,1,NaN,NaN,4.32791459420696,2.64123503630981,3,4,2
2,1,1,9,14,0,1,JONAH,141,312,78,15,GREGORY,BRANDON,ANTON,WAYNE,76,84,1,NaN,NaN,0.917516527697444,0.241058133775368,1,0,1
2,1,1,9,15,0,3,SELINA,141,248,158,8,BRYONY,MELISSA,PARIS,SHONA,157,165,0,0,1,1.2484764396213,0.393754874588922,0,1,2
2,1,1,9,16,0,3,ALISHA,69,128,363,10,SELINA,SIMONE,ELOISE,ANNABEL,351,380,0,0,1,0.614073239034042,0.0230613136664033,0,0,1
3,1,1,1,1,0,2,LOUIS,38,61,1100,15,ALFRED,THOMAS,ANTHONY,PETER,1045,1128,0,1,0,4.47681772183569,0.792251561782905,1,0,3
3,1,1,1,2,0,4,CHLOE,2,2,6824,9,HAYLEY,MAISIE,EMILY,MEGAN,6415,4948,1,NaN,NaN,3.79907139886927,1.1690380959044,3,0,1
3,1,1,1,3,0,2,THOMAS,2,3,9603,12,STEPHEN,OSCAR,JOSHUA,JORDAN,7887,5750,1,NaN,NaN,2.27643806079868,0.0462969528452959,0,0,2
3,1,1,1,4,0,1,DANIEL,1,2,10338,13,ROBBIE,LOUIS,JAMES,SAMUEL,9385,6161,1,NaN,NaN,3.21140954116709,1.27962263447989,2,0,2
3,1,1,1,5,0,1,STEPHEN,37,60,1122,2,LOUIS,DOUGLAS,RICHARD,HENRY,1089,1135,1,NaN,NaN,3.13312924098864,0.0363189825729933,0,0,1
3,1,1,1,6,0,3,SOPHIE,1,1,7087,4,KERRY,HARRIET,JESSICA,REBECCA,6711,5828,0,1,0,6.55392021950684,3.77975213265745,1,2,3
3,1,1,1,7,0,3,HAYLEY,37,57,1088,1,HARRIET,CASEY,LYDIA,KIRSTY,1009,1202,1,NaN,NaN,6.89689240414009,0.0446946006122744,0,0,0
3,1,1,1,8,0,2,ROBBIE,74,130,302,5,THOMAS,ALFRED,TOBIAS,GRANT,296,307,1,NaN,NaN,4.04977537623199,0.038182434393093,0,0,2
3,1,1,1,9,0,1,OSCAR,73,128,307,7,DANIEL,ROBBIE,LLOYD,MASON,299,320,1,NaN,NaN,5.79162570397602,0.044574717147043,0,0,3
3,1,1,1,10,0,4,KERRY,74,136,333,11,CHLOE,CARYS,SIOBHAN,TIFFANY,332,346,1,NaN,NaN,9.53280871045718,6.91497978505504,3,0,4
3,1,1,1,11,0,4,CASEY,110,201,215,3,MAISIE,HAYLEY,VANESSA,KIERA,213,221,0,1,0,5.82981144344376,4.11139908515906,3,0,2
3,1,1,1,12,0,3,MAISIE,73,135,335,10,SOPHIE,KERRY,SASHA,ELOISE,333,351,1,NaN,NaN,4.32241201936267,1.16888275816746,3,0,2
3,1,1,1,13,0,3,CARYS,109,199,217,16,CASEY,SOPHIE,ELENA,KIRSTEN,213,225,1,NaN,NaN,4.13349099463085,0.42995951003104,0,1,2
3,1,1,1,14,0,4,HARRIET,38,60,1046,14,CARYS,CHLOE,AMELIA,JASMINE,929,1145,1,NaN,NaN,4.56091462374025,0.594998786138603,0,1,3
3,1,1,1,15,0,2,DOUGLAS,110,218,142,6,OSCAR,STEPHEN,JAMAL,CALVIN,139,147,1,NaN,NaN,2.99533566168975,1.06554921652423,2,0,1
3,1,1,1,16,0,1,ALFRED,109,218,142,8,DOUGLAS,DANIEL,DUNCAN,FELIX,139,149,1,NaN,NaN,6.5357985861483,0.453476800888893,1,0,3
3,1,1,2,1,1,3,AISHA,77,139,328,13,PHOEBE,LAUREN,SHAUNA,SASHA,316,333,1,NaN,NaN,5.82539858999371,1.02780094656919,3,0,4
3,1,1,2,2,1,3,ELLEN,41,63,929,7,HANNAH,POLLY,CAITLIN,LYDIA,906,1009,0,0,1,3.68079809340998,0.0351889531739289,0,0,1
3,1,1,2,3,1,2,JOSEPH,6,8,6193,2,CIARAN,MORGAN,JORDAN,JOSHUA,5750,7887,1,NaN,NaN,2.57109810854308,0.812444264709484,1,0,1
3,1,1,2,4,1,4,PHOEBE,42,65,910,14,POLLY,SUMMER,ROSIE,AMELIA,879,929,1,NaN,NaN,1.64891930611338,0.0422188116644975,0,0,1
3,1,1,2,5,1,1,MATTHEW,5,6,7426,3,DAMON,PATRICK,SAMUEL,JAMES,6161,9385,1,NaN,NaN,4.17356903004111,1.39077924855519,3,0,2
3,1,1,2,6,1,4,MILLIE,78,140,324,6,AISHA,HANNAH,SALLY,SIOBHAN,309,332,1,NaN,NaN,7.91243158529687,3.00775306529249,3,0,3
3,1,1,2,7,1,3,LAUREN,5,5,6299,11,SUMMER,ELLEN,REBECCA,JESSICA,5828,6711,1,NaN,NaN,5.50377557813772,0.50629222963471,1,0,3
3,1,1,2,8,1,4,HANNAH,6,6,5916,10,MILLIE,AISHA,MEGAN,EMILY,4948,6415,1,NaN,NaN,4.58781509220717,2.12093718226242,1,0,2
3,1,1,2,9,1,3,POLLY,113,204,212,15,LAUREN,MILLIE,DEANNA,ELENA,202,213,0,0,1,6.16732968135329,0.384954233959434,1,0,4
3,1,1,2,10,1,2,CIARAN,78,136,278,16,MORGAN,JOSEPH,KEVIN,TOBIAS,250,296,1,NaN,NaN,2.58149191523262,0.763337111115106,2,0,1
3,1,1,2,11,1,2,TYLER,42,67,1007,1,PERRY,DAMON,ELLIOT,ANTHONY,919,1045,0,0,1,11.4802603904973,5.66941006515117,7,4,4
3,1,1,2,12,1,1,PERRY,113,220,139,12,MATTHEW,CIARAN,REGAN,DUNCAN,136,139,1,NaN,NaN,2.10163023491623,0.0399728744814638,0,0,2
3,1,1,2,13,1,4,SUMMER,114,206,203,8,ELLEN,PHOEBE,SINEAD,VANESSA,202,213,1,NaN,NaN,3.7543656812486,1.19150017187349,1,1,2
3,1,1,2,14,1,1,PATRICK,41,66,1039,4,JOSEPH,PERRY,JASON,RICHARD,1001,1089,1,NaN,NaN,4.10830284668191,1.10499838953547,2,0,3
3,1,1,2,15,1,2,DAMON,114,226,136,5,PATRICK,TYLER,WARREN,JAMAL,136,139,1,NaN,NaN,2.26962002649088,0.71473803507979,2,0,1
3,1,1,2,16,1,1,MORGAN,77,133,294,9,TYLER,MATTHEW,FRASER,LLOYD,278,299,1,NaN,NaN,3.02601110740216,0.917520473332843,2,0,1
3,1,1,3,1,1,2,ANGUS,82,144,247,15,SHANE,BILLY,RICKY,KEVIN,242,250,1,NaN,NaN,2.35707576875575,0.39814922757796,1,0,1
3,1,1,3,2,1,4,DAISY,46,71,828,7,APRIL,SHELBY,KELLY,ROSIE,789,879,1,NaN,NaN,6.20602379883348,0.549623644037638,1,0,1
3,1,1,3,3,1,4,KATIE,10,12,4337,1,HELENA,SHANNON,GEORGIA,MEGAN,3723,4948,1,NaN,NaN,4.19529738312121,0.817313516599825,1,0,2
3,1,1,3,4,1,2,HARRY,10,17,4434,13,TRISTAN,CONNOR,CALLUM,JORDAN,4281,5750,1,NaN,NaN,2.76490941738302,0.958497785002692,3,0,1
3,1,1,3,5,1,3,SHANNON,9,11,4649,12,SHELBY,EBONY,BETHANY,REBECCA,4271,5828,0,0,1,6.4892309190036,0.465358484623721,0,1,3
3,1,1,3,6,1,1,CONNOR,9,13,5009,11,JEROME,ARTHUR,GEORGE,SAMUEL,4287,6161,1,NaN,NaN,1.28523882949958,0.0289610219479073,0,0,1
3,1,1,3,7,1,1,BILLY,45,71,914,8,CONNOR,HARRY,SHAUN,JASON,773,1001,1,NaN,NaN,4.75248089677189,1.49917674007884,2,0,3
3,1,1,3,8,1,2,SHANE,46,74,846,4,ANGUS,JEROME,CURTIS,ELLIOT,757,919,1,NaN,NaN,2.6345936821599,0.656145364861004,0,1,1
3,1,1,3,9,1,4,EBONY,118,211,200,6,KATIE,HELENA,SHANICE,SINEAD,200,202,1,NaN,NaN,2.53727985308797,0.738717733620433,2,0,1
3,1,1,3,10,1,3,AIMEE,45,70,876,16,SHANNON,KATIE,BETHAN,CAITLIN,825,906,1,NaN,NaN,2.57328755928029,0.0356799045257503,0,0,1
3,1,1,3,11,1,4,APRIL,82,146,300,2,DAISY,AIMEE,JENNA,SALLY,289,309,1,NaN,NaN,3.35274253717216,1.55863563598541,2,0,2
3,1,1,3,12,1,3,SHELBY,117,209,201,3,AIMEE,APRIL,MATILDA,DEANNA,200,202,1,NaN,NaN,2.02285267373372,0.0345141204161337,0,0,1
3,1,1,3,13,1,3,HELENA,81,145,308,14,EBONY,DAISY,CLAUDIA,SHAUNA,290,316,0,1,0,6.48768355090579,0.0351498934032861,0,0,3
3,1,1,3,14,1,2,ARTHUR,118,234,129,9,HARRY,TRISTAN,BOBBY,WARREN,126,136,1,NaN,NaN,3.22341261066322,0.0426292397896759,0,0,2
3,1,1,3,15,1,1,TRISTAN,81,141,250,5,ARTHUR,SHANE,TOMMY,FRASER,247,278,1,NaN,NaN,5.28210653584392,0.03262422811531,0,0,1
3,1,1,3,16,1,1,JEROME,117,230,135,10,BILLY,ANGUS,SONNY,REGAN,127,136,1,NaN,NaN,2.17959655457526,0.433199067847454,1,0,1
3,1,1,4,1,2,3,LAURA,13,17,3582,4,HEATHER,MARTHA,ABIGAIL,BETHANY,2595,4271,0,1,0,5.60877096308104,0.562753437858191,1,0,3
3,1,1,4,2,2,1,CRAIG,49,81,705,15,MICHAEL,MILES,AIDAN,SHAUN,680,773,1,NaN,NaN,1.87334687005205,0.430529782766826,0,1,2
3,1,1,4,3,2,3,NADIA,85,153,285,9,JOSIE,NIKITA,FIONA,CLAUDIA,278,290,0,1,0,1.33878798111982,0.0265588456531987,0,0,3
3,1,1,4,4,2,2,TIMOTHY,50,82,691,16,WILLIAM,CRAIG,DECLAN,CURTIS,680,757,0,1,0,5.71696985064773,0.294323232272291,1,0,3
3,1,1,4,5,2,4,SARAH,14,18,3111,1,NAOMI,JOSIE,ELEANOR,GEORGIA,2555,3723,1,NaN,NaN,2.0197822748014,0.49989994688076,0,1,1
3,1,1,4,6,2,3,NAOMI,49,75,766,11,SARAH,NADIA,ROBYN,BETHAN,683,825,1,NaN,NaN,2.19771518332709,0.393522146288888,1,0,1
3,1,1,4,7,2,2,MICHAEL,14,22,4187,3,CRAIG,FERGUS,LEWIS,CALLUM,3569,4281,1,NaN,NaN,2.4104918166704,0.504397529977723,1,0,2
3,1,1,4,8,2,1,WILLIAM,13,21,4269,6,TIMOTHY,SPENCER,OLIVER,GEORGE,3655,4287,1,NaN,NaN,4.69058106526791,1.55200118261564,3,0,3
3,1,1,4,9,2,1,MILES,85,154,223,7,FERGUS,STEFAN,BRETT,TOMMY,214,247,0,0,1,7.75832754447765,2.78949213877786,4,1,4
3,1,1,4,10,2,4,HEATHER,50,78,713,8,LAURA,NAOMI,YASMIN,KELLY,661,789,1,NaN,NaN,5.07523093342024,2.27658979302214,2,0,2
3,1,1,4,11,2,2,FERGUS,122,243,120,2,STEFAN,TIMOTHY,BARNABY,BOBBY,113,126,1,NaN,NaN,3.69616541154392,0.73649613368616,0,1,1
3,1,1,4,12,2,4,NIKITA,86,155,284,10,MARTHA,LAURA,CIARA,JENNA,276,289,0,1,0,4.30579689155275,1.07406755298143,3,0,4
3,1,1,4,13,2,1,SPENCER,121,239,124,5,MILES,MICHAEL,VINCENT,SONNY,117,127,0,1,0,2.10340775523218,0.285032113155467,0,1,3
3,1,1,4,14,2,4,JOSIE,122,215,197,14,NIKITA,HEATHER,HEIDI,SHANICE,193,200,1,NaN,NaN,4.48790859531437,1.47060060716467,3,0,4
3,1,1,4,15,2,2,STEFAN,86,155,222,13,SPENCER,WILLIAM,KURTIS,RICKY,214,242,1,NaN,NaN,2.89393437717808,1.04063298471738,3,0,1
3,1,1,4,16,2,3,MARTHA,121,214,198,12,NADIA,SARAH,JESSIE,MATILDA,194,200,1,NaN,NaN,5.32793236769794,1.73216380347731,3,0,3
3,1,1,5,1,0,1,MARCUS,53,85,674,1,LUCAS,BRIAN,ETHAN,AIDAN,604,680,0,1,0,4.88448131018959,0.0363820791390026,0,0,4
3,1,1,5,2,0,2,NATHAN,18,27,2744,11,KIERAN,LUCAS,ROBERT,LEWIS,2644,3569,0,1,0,0.0739302428410156,0.0255318739800714,0,0,1
3,1,1,5,3,0,1,KIERAN,17,26,2882,5,MARCUS,SIMON,ANDREW,OLIVER,2676,3655,0,1,0,4.58822311666154,0.0366951582836919,0,0,1
3,1,1,5,4,0,4,OLIVIA,18,24,2456,3,HOLLY,FRANCES,RACHEL,ELEANOR,2105,2555,1,NaN,NaN,2.92424085822131,0.0342124587477883,0,0,2
3,1,1,5,5,0,3,RHIANNA,89,158,276,10,LEANNE,LIBBY,LORNA,FIONA,274,278,0,0,1,0.0492002961400431,0.0226606799114961,0,0,1
3,1,1,5,6,0,3,RHIAN,125,219,192,15,RHIANNA,HOLLY,JULIA,JESSIE,184,194,0,0,1,0.080782229124452,0.0271327239170205,0,0,1
3,1,1,5,7,0,3,HOLLY,17,23,2498,4,KATHRYN,LEANNE,ALICE,ABIGAIL,2357,2595,0,1,0,5.55255402869079,0.0352508478972595,0,0,1
3,1,1,5,8,0,3,KATHRYN,53,86,635,12,FRANCES,RHIAN,CLAIRE,ROBYN,564,683,0,0,1,0.068130166415358,0.0274791541014565,0,0,1
3,1,1,5,9,0,1,TRAVIS,89,165,205,2,SIMON,DARYL,GABRIEL,BRETT,189,214,1,NaN,NaN,2.55188039776112,0.384855683136266,1,0,1
3,1,1,5,10,0,2,SIMON,54,87,656,6,BRIAN,NATHAN,ZACHARY,DECLAN,574,680,1,NaN,NaN,1.70608809722762,0.0383311620098539,0,0,1
3,1,1,5,11,0,4,LEANNE,54,88,616,9,RHIAN,OLIVIA,IMOGEN,YASMIN,555,661,1,NaN,NaN,0.0522860185155878,0.0262355508748442,0,0,1
3,1,1,5,12,0,4,LIBBY,126,220,191,13,OLIVIA,RHIANNA,ALISON,HEIDI,181,193,0,1,0,0.152903703827178,0.0285992683202494,0,0,1
3,1,1,5,13,0,2,LUCAS,90,169,202,8,DARYL,MARCUS,HARLEY,KURTIS,186,214,0,0,1,0.0599414343741955,0.0265912953182124,0,0,1
3,1,1,5,14,0,2,DARYL,126,257,111,7,NATHAN,TRAVIS,RUSSELL,BARNABY,111,113,0,0,1,0.424565054359846,0.0214744645199971,0,0,1
3,1,1,5,15,0,4,FRANCES,90,161,274,14,LIBBY,KATHRYN,SABRINA,CIARA,272,276,1,NaN,NaN,0.173471981514012,0.0249318557180231,0,0,1
3,1,1,5,16,0,1,BRIAN,125,251,113,16,TRAVIS,KIERAN,LOGAN,VINCENT,111,117,0,0,1,0.0725358088093344,0.0226766042760573,0,0,1
3,1,1,6,1,2,2,PHILIP,58,103,481,6,DAVID,ALBERT,NIALL,ZACHARY,462,574,0,1,0,4.56002466175414,0.660857175826095,2,0,3
3,1,1,6,2,2,4,ISOBEL,58,94,522,16,MOLLY,JEMIMA,STACEY,IMOGEN,509,555,0,0,1,5.36249546305044,2.95264092166326,3,3,4
3,1,1,6,3,2,4,AMANDA,94,170,264,5,BROOKE,POPPY,ELISE,SABRINA,253,272,1,NaN,NaN,3.69006397390331,0.0370653247809969,0,0,4
3,1,1,6,4,2,4,MOLLY,22,29,2026,8,POPPY,MARYAM,NATASHA,RACHEL,1751,2105,0,1,0,3.43768913946406,0.045812010706868,0,0,4
3,1,1,6,5,2,1,BRADLEY,21,31,2557,7,PHILIP,WESLEY,AARON,ANDREW,2511,2676,0,1,0,3.19201155449264,0.525579947556253,1,0,4
3,1,1,6,6,2,1,COREY,57,101,527,1,ALBERT,BRADLEY,ISAAC,ETHAN,480,604,1,NaN,NaN,2.81727445682918,0.035304329750943,0,0,4
3,1,1,6,7,2,1,WESLEY,93,178,185,9,JEREMY,PHILIP,CALEB,GABRIEL,177,189,0,1,0,1.38694808534638,0.0334252540051239,0,0,3
3,1,1,6,8,2,2,DAVID,22,32,2517,12,COREY,JEREMY,JACOB,ROBERT,2249,2644,0,1,0,3.78695325326407,0.320694290538086,1,0,4
3,1,1,6,9,2,4,MARYAM,130,229,176,2,PAIGE,AMANDA,ALANA,ALISON,170,181,0,1,0,3.55035225910251,0.561304620598094,1,0,4
3,1,1,6,10,2,3,JEMIMA,129,228,177,13,AMANDA,MOLLY,SASKIA,JULIA,171,184,0,1,0,6.31977428255777,0.934519588787225,2,0,3
3,1,1,6,11,2,2,JEREMY,130,265,108,14,BRADLEY,JUSTIN,USMAN,RUSSELL,106,111,1,NaN,NaN,4.85072585084708,0.540730333697866,0,1,3
3,1,1,6,12,2,3,PAIGE,21,28,2052,4,ISOBEL,BROOKE,ELLIE,ALICE,1900,2357,1,NaN,NaN,2.7455072242592,0.759700645867269,2,0,3
3,1,1,6,13,2,1,ALBERT,129,261,110,11,JUSTIN,DAVID,STANLEY,LOGAN,108,111,1,NaN,NaN,3.26303304577596,0.629803150746739,2,0,1
3,1,1,6,14,2,3,POPPY,57,92,537,3,JEMIMA,PAIGE,MARIA,CLAIRE,511,564,1,NaN,NaN,3.89680707354273,1.01387703743239,1,1,3
3,1,1,6,15,2,2,JUSTIN,94,181,182,15,WESLEY,COREY,GAVIN,HARLEY,176,186,1,NaN,NaN,3.35857506327739,0.268454242381267,1,0,4
3,1,1,6,16,2,3,BROOKE,93,166,269,10,MARYAM,ISOBEL,CHARLEY,LORNA,256,274,0,1,0,5.96169527845632,1.95107913149695,3,0,4
3,1,1,7,1,1,3,CHELSEA,25,34,1735,1,INDIA,TANYA,AMBER,ELLIE,1422,1900,1,NaN,NaN,5.43613876677409,1.22164921196236,3,0,2
3,1,1,7,2,1,2,MARTIN,62,109,435,8,ASHLEY,ROWAN,HARVEY,NIALL,401,462,0,0,1,5.55231155760703,0.0407369438180467,0,0,1
3,1,1,7,3,1,1,ELLIS,61,107,443,5,CHARLIE,ASHLEY,STUART,ISAAC,405,480,0,1,0,4.50330055116501,0.0416184929345036,0,0,3
3,1,1,7,4,1,1,CHARLIE,25,38,1912,11,ROWAN,GLENN,REECE,AARON,1811,2511,0,0,1,6.58812516674516,3.06967392898514,3,2,4
3,1,1,7,5,1,4,NICOLE,26,36,1679,13,KELSEY,KATRINA,GRACE,NATASHA,1421,1751,1,NaN,NaN,4.43743104446912,0.0453856582171284,0,0,4
3,1,1,7,6,1,3,ALICIA,61,98,504,16,CHELSEA,NICOLE,TAMARA,MARIA,397,511,1,NaN,NaN,4.56100386031903,0.272782967047533,0,1,3
3,1,1,7,7,1,2,ASHLEY,26,40,1874,12,MARTIN,FRANCIS,CAMERON,JACOB,1791,2249,1,NaN,NaN,1.85086556465831,0.0350597554497654,0,0,1
3,1,1,7,8,1,2,ROWAN,98,188,172,6,GLENN,CHARLIE,JESSE,GAVIN,161,176,1,NaN,NaN,3.41926283984503,0.391430345000117,1,0,1
3,1,1,7,9,1,2,GLENN,134,278,100,15,JULIAN,MARTIN,DAMIEN,USMAN,90,106,1,NaN,NaN,1.32993222826917,0.277718620578526,1,0,1
3,1,1,7,10,1,1,FRANCIS,97,188,172,14,ELLIS,JULIAN,ARCHIE,CALEB,169,177,0,1,0,2.65859050692234,0.268509827437811,1,0,3
3,1,1,7,11,1,1,JULIAN,133,274,102,4,FRANCIS,ELLIS,JASPER,STANLEY,94,108,0,0,1,7.11618240555981,1.50407814119535,3,0,4
3,1,1,7,12,1,3,MADISON,133,235,169,2,KATRINA,ALICIA,MELANIE,SASKIA,166,171,0,1,0,8.1563034067367,1.61545619416574,2,1,4
3,1,1,7,13,1,3,KATRINA,97,177,251,9,ALICIA,MADISON,BILLIE,CHARLEY,242,256,1,NaN,NaN,0.053658518998418,0.0284841922111809,0,0,1
3,1,1,7,14,1,4,KELSEY,62,107,438,7,NICOLE,INDIA,FREYA,STACEY,394,509,1,NaN,NaN,5.63492629119719,0.945707811246393,3,0,2
3,1,1,7,15,1,4,TANYA,134,235,169,3,MADISON,KELSEY,SAFFRON,ALANA,166,170,0,1,0,4.88881243855576,2.76660791675386,4,1,4
3,1,1,7,16,1,4,INDIA,98,180,245,10,TANYA,CHELSEA,ELISHA,ELISE,240,253,1,NaN,NaN,1.53200888639549,0.429009756524465,1,0,1
3,1,1,8,1,0,3,SIMRAN,101,184,240,6,ANNIE,CARLY,SADIE,BILLIE,235,242,1,NaN,NaN,4.33379584115755,0.0409556785743916,0,0,1
3,1,1,8,2,0,1,GARETH,65,117,373,10,ROBIN,FRANK,TAYLOR,STUART,354,405,1,NaN,NaN,5.21933657268528,0.245901127083926,0,1,4
3,1,1,8,3,0,1,CHARLES,29,44,1738,12,ALFIE,GARETH,SCOTT,REECE,1632,1811,0,1,0,6.21854696427181,0.695654028924764,3,0,3
3,1,1,8,4,0,3,ANNIE,65,119,389,15,SIMRAN,NADINE,ANNABEL,TAMARA,380,397,1,NaN,NaN,3.09171566164878,0.350096387512167,1,0,3
3,1,1,8,5,0,4,JODIE,30,43,1354,5,BROGAN,NIAMH,ABBIE,GRACE,1297,1421,1,NaN,NaN,3.19276180265297,0.758088077986031,2,0,2
3,1,1,8,6,0,4,NIAMH,66,120,381,13,JODIE,NATALIE,JOANNA,FREYA,374,394,1,NaN,NaN,1.52430870203534,0.392598232327146,0,1,1
3,1,1,8,7,0,2,EDWARD,30,45,1658,3,FREDDIE,ALFIE,DOMINIC,CAMERON,1519,1791,1,NaN,NaN,4.15993206002167,0.652044689195463,2,0,2
3,1,1,8,8,0,3,NATALIE,29,42,1393,9,NIAMH,ANNIE,LOUISE,AMBER,1309,1422,1,NaN,NaN,3.01265807190794,0.288299012812786,0,1,3
3,1,1,8,9,0,2,FRANK,138,292,86,7,CHARLES,FREDDIE,JIMMY,DAMIEN,80,90,1,NaN,NaN,3.07195351766131,0.965762002175325,1,0,1
3,1,1,8,10,0,1,ROBIN,101,198,161,8,GARETH,MAXWELL,REUBEN,ARCHIE,160,169,1,NaN,NaN,2.74329073213448,0.611640053932206,2,0,1
3,1,1,8,11,0,1,FREDDIE,137,290,89,1,MAXWELL,EDWARD,WAYNE,JASPER,84,94,0,1,0,4.70805370538437,0.286692454130389,1,0,3
3,1,1,8,12,0,2,ALFIE,66,119,372,11,EDWARD,CHARLES,DARREN,HARVEY,343,401,1,NaN,NaN,4.49730066893972,0.945063024453702,3,0,4
3,1,1,8,13,0,2,MAXWELL,102,200,160,14,FRANK,ROBIN,JARED,JESSE,158,161,0,0,1,6.01075015202514,0.436313033467741,0,1,4
3,1,1,8,14,0,4,CARLY,102,187,235,4,NADINE,SIMRAN,ANTONIA,ELISHA,234,240,0,1,0,4.66970211210719,0.0461368077812949,0,0,4
3,1,1,8,15,0,4,NADINE,138,241,165,16,NATALIE,BROGAN,MIRIAM,SAFFRON,161,166,0,1,0,5.640828824442,0.392672445916105,0,1,4
3,1,1,8,16,0,3,BROGAN,137,241,165,2,CARLY,JODIE,SHONA,MELANIE,165,166,0,0,1,3.76514197327197,0.863207853297354,2,0,3
3,1,1,9,1,2,1,HAYDEN,69,124,340,8,BLAKE,JONAH,MASON,TAYLOR,320,354,0,1,0,6.05034084162617,0.701760874842876,1,1,4
3,1,1,9,2,2,2,GREGORY,70,125,339,12,HAYDEN,RAYMOND,GRANT,DARREN,307,343,0,0,1,4.27048234618269,0.314439918845892,1,0,4
3,1,1,9,3,2,4,BRYONY,70,129,362,13,ALISHA,SIMONE,TIFFANY,JOANNA,346,374,1,NaN,NaN,4.9458039583842,1.14894694840768,3,0,4
3,1,1,9,4,2,2,DYLAN,34,57,1186,10,JONAH,BRANDON,PETER,DOMINIC,1128,1519,1,NaN,NaN,2.65089933635318,0.403932778717717,0,1,3
3,1,1,9,5,2,4,GEMMA,34,50,1261,5,SELINA,MELISSA,JASMINE,ABBIE,1145,1297,1,NaN,NaN,5.86927053162071,0.916157287108945,1,2,4
3,1,1,9,6,2,4,CARLA,106,192,230,6,SIMONE,ALISHA,KIERA,ANTONIA,221,234,0,0,1,3.56306681747083,0.242965935060056,0,1,3
3,1,1,9,7,2,3,MELISSA,33,46,1282,9,GEMMA,CARLA,KIRSTY,LOUISE,1202,1309,0,0,1,2.52060132827319,0.0383431804075371,0,0,3
3,1,1,9,8,2,1,BRANDON,33,53,1337,3,DYLAN,BLAKE,HENRY,SCOTT,1135,1632,1,NaN,NaN,1.5414916988957,0.302881529903971,1,0,1
3,1,1,9,9,2,3,ALISHA,69,128,363,11,CARLA,SELINA,ELOISE,ANNABEL,351,380,1,NaN,NaN,4.14069752348587,0.593718526826706,2,0,1
3,1,1,9,10,2,1,JONAH,141,312,78,1,ADRIAN,GREGORY,ANTON,WAYNE,76,84,0,1,0,5.27011368198146,0.811997781405807,3,0,4
3,1,1,9,11,2,4,SIMONE,142,248,158,7,MELISSA,ESTHER,NANCY,MIRIAM,156,161,1,NaN,NaN,1.79287621776166,0.350116818779497,0,1,1
3,1,1,9,12,2,3,ESTHER,105,191,231,2,BRYONY,GEMMA,KIRSTEN,SADIE,225,235,1,NaN,NaN,6.1136089671636,0.599741544472636,0,1,3
3,1,1,9,13,2,3,SELINA,141,248,158,14,ESTHER,BRYONY,PARIS,SHONA,157,165,1,NaN,NaN,3.79733804614807,1.36664901966287,3,0,4
3,1,1,9,14,2,2,RAYMOND,142,312,78,15,BRANDON,ADRIAN,COLIN,JIMMY,76,80,1,NaN,NaN,5.37092726708215,0.0479633030336117,0,0,2
3,1,1,9,15,2,1,ADRIAN,105,204,155,4,GREGORY,DYLAN,FELIX,REUBEN,149,160,1,NaN,NaN,3.04845215118257,0.862421549929422,2,0,2
3,1,1,9,16,2,2,BLAKE,106,207,154,16,RAYMOND,HAYDEN,CALVIN,JARED,147,158,1,NaN,NaN,1.15352745841665,0.0229773645551177,0,0,1
4,1,1,1,1,2,2,LOUIS,38,61,1100,4,ROBBIE,THOMAS,ANTHONY,PETER,1045,1128,0,1,0,9.25557983938779,6.47312927704479,3,0,2
4,1,1,1,2,2,4,KERRY,74,136,333,15,HARRIET,MAISIE,SIOBHAN,TIFFANY,332,346,0,1,0,9.33547150559025,2.82744892784103,0,1,1
4,1,1,1,3,2,2,THOMAS,2,3,9603,2,ALFRED,DANIEL,JOSHUA,JORDAN,7887,5750,0,1,0,8.43839041268802,2.51197572765523,1,1,2
4,1,1,1,4,2,3,SOPHIE,1,1,7087,9,CASEY,CARYS,JESSICA,REBECCA,6711,5828,0,1,0,7.69944673328428,0.046706780049135,0,0,3
4,1,1,1,5,2,1,DANIEL,1,2,10338,3,DOUGLAS,ALFRED,JAMES,SAMUEL,9385,6161,1,NaN,NaN,5.57277497481846,0.0357712443073979,0,0,3
4,1,1,1,6,2,1,STEPHEN,37,60,1122,8,DANIEL,ROBBIE,RICHARD,HENRY,1089,1135,0,1,0,6.85099235871166,1.86223105841782,3,0,2
4,1,1,1,7,2,4,CHLOE,2,2,6824,7,CARYS,SOPHIE,EMILY,MEGAN,6415,4948,0,1,0,8.39411795811611,3.80417200483498,2,0,1
4,1,1,1,8,2,4,HARRIET,38,60,1046,11,KERRY,CHLOE,AMELIA,JASMINE,929,1145,1,NaN,NaN,13.2915761281038,8.00305146996106,4,2,1
4,1,1,1,9,2,1,ALFRED,109,218,142,16,THOMAS,STEPHEN,DUNCAN,FELIX,139,149,1,NaN,NaN,6.47192773821007,0.0369009732530685,0,0,2
4,1,1,1,10,2,4,CASEY,110,201,215,14,MAISIE,HARRIET,VANESSA,KIERA,213,221,1,NaN,NaN,7.95685667345242,2.72671045767493,0,1,2
4,1,1,1,11,2,2,ROBBIE,74,130,302,6,LOUIS,OSCAR,TOBIAS,GRANT,296,307,1,NaN,NaN,10.1275722365535,5.2174196390115,1,1,1
4,1,1,1,12,2,3,MAISIE,73,135,335,10,HAYLEY,CASEY,SASHA,ELOISE,333,351,0,1,0,7.08772585565748,2.52889071435493,1,0,1
4,1,1,1,13,2,2,DOUGLAS,110,218,142,5,OSCAR,LOUIS,JAMAL,CALVIN,139,147,1,NaN,NaN,4.05060885178682,1.93967067198537,2,0,4
4,1,1,1,14,2,3,CARYS,109,199,217,1,CHLOE,HAYLEY,ELENA,KIRSTEN,213,225,1,NaN,NaN,7.98706430321909,5.80056258097466,1,2,2
4,1,1,1,15,2,1,OSCAR,73,128,307,13,STEPHEN,DOUGLAS,LLOYD,MASON,299,320,1,NaN,NaN,4.40779008193931,1.08255644438032,2,0,4
4,1,1,1,16,2,3,HAYLEY,37,57,1088,12,SOPHIE,KERRY,LYDIA,KIRSTY,1009,1202,0,1,0,8.85373585735215,5.29268392347149,2,0,1
4,1,1,2,1,2,2,JOSEPH,6,8,6193,6,MATTHEW,PERRY,JORDAN,JOSHUA,5750,7887,0,0,1,6.32953892636579,1.92596219254483,3,0,1
4,1,1,2,2,2,3,ELLEN,41,63,929,5,POLLY,SUMMER,CAITLIN,LYDIA,906,1009,0,1,0,9.80250445281854,6.54047794744838,1,2,1
4,1,1,2,3,2,1,PERRY,113,220,139,11,MORGAN,PATRICK,REGAN,DUNCAN,136,139,0,1,0,5.63405916413467,1.7904241651413,0,1,1
4,1,1,2,4,2,2,TYLER,42,67,1007,14,PATRICK,JOSEPH,ELLIOT,ANTHONY,919,1045,1,NaN,NaN,14.6492906744534,7.85446627518104,4,4,1
4,1,1,2,5,2,1,MORGAN,77,133,294,2,DAMON,CIARAN,FRASER,LLOYD,278,299,0,0,1,6.95071257051313,0.0468522026058054,0,0,1
4,1,1,2,6,2,1,MATTHEW,5,6,7426,3,CIARAN,TYLER,SAMUEL,JAMES,6161,9385,0,1,0,4.82109570487228,0.936309427939705,2,0,1
4,1,1,2,7,2,3,LAUREN,5,5,6299,9,MILLIE,PHOEBE,REBECCA,JESSICA,5828,6711,0,1,0,5.34961865640071,2.3347582139686,2,0,2
4,1,1,2,8,2,1,PATRICK,41,66,1039,7,PERRY,DAMON,JASON,RICHARD,1001,1089,0,1,0,14.0126163079985,7.65106338739861,3,4,1
4,1,1,2,9,2,4,SUMMER,114,206,203,1,PHOEBE,AISHA,SINEAD,VANESSA,202,213,1,NaN,NaN,6.23876220166858,3.58684160238772,1,0,3
4,1,1,2,10,2,2,DAMON,114,226,136,4,TYLER,MORGAN,WARREN,JAMAL,136,139,1,NaN,NaN,9.01591866191302,1.99962953303475,1,1,1
4,1,1,2,11,2,3,AISHA,77,139,328,12,SUMMER,MILLIE,SHAUNA,SASHA,316,333,1,NaN,NaN,5.36077623194433,1.58902233978733,3,0,1
4,1,1,2,12,2,4,PHOEBE,42,65,910,13,ELLEN,HANNAH,ROSIE,AMELIA,879,929,0,0,1,5.27624546605512,1.23013389691187,1,1,1
4,1,1,2,13,2,4,MILLIE,78,140,324,8,HANNAH,LAUREN,SALLY,SIOBHAN,309,332,0,1,0,6.36726315954002,3.6792372046184,1,0,1
4,1,1,2,14,2,2,CIARAN,78,136,278,10,JOSEPH,MATTHEW,KEVIN,TOBIAS,250,296,0,1,0,8.35961044783471,1.6332779686054,1,2,1
4,1,1,2,15,2,3,POLLY,113,204,212,15,AISHA,ELLEN,DEANNA,ELENA,202,213,0,1,0,4.67713759136677,1.02711649908451,0,1,3
4,1,1,2,16,2,4,HANNAH,6,6,5916,16,LAUREN,POLLY,MEGAN,EMILY,4948,6415,NaN,NaN,NaN,NaN,NaN,7,4,1
4,1,1,3,1,1,2,SHANE,46,74,846,13,JEROME,ARTHUR,CURTIS,ELLIOT,757,919,0,0,1,7.02478222672653,3.29687323479448,2,1,1
4,1,1,3,2,1,3,AIMEE,45,70,876,14,APRIL,DAISY,BETHAN,CAITLIN,825,906,0,0,1,17.3617821714433,14.6916816495941,5,3,1
4,1,1,3,3,1,4,KATIE,10,12,4337,9,EBONY,SHELBY,GEORGIA,MEGAN,3723,4948,0,0,1,13.1713765747118,11.3286853200261,6,4,1
4,1,1,3,4,1,3,SHANNON,9,11,4649,6,HELENA,KATIE,BETHANY,REBECCA,4271,5828,0,1,0,8.9213327075704,3.34869534334575,3,0,1
4,1,1,3,5,1,2,HARRY,10,17,4434,4,ARTHUR,JEROME,CALLUM,JORDAN,4281,5750,0,1,0,8.64843376302451,3.02285657971515,3,0,1
4,1,1,3,6,1,1,CONNOR,9,13,5009,16,TRISTAN,HARRY,GEORGE,SAMUEL,4287,6161,0,1,0,5.90835404503741,0.0424093032052042,0,0,1
4,1,1,3,7,1,3,HELENA,81,145,308,7,KATIE,SHANNON,CLAUDIA,SHAUNA,290,316,0,0,1,7.85609897386166,0.0386830004717922,0,0,2
4,1,1,3,8,1,2,ANGUS,82,144,247,1,CONNOR,TRISTAN,RICKY,KEVIN,242,250,0,0,1,7.6763317581208,3.04815259273164,2,0,1
4,1,1,3,9,1,4,DAISY,46,71,828,8,SHELBY,EBONY,KELLY,ROSIE,789,879,0,0,1,4.74855058180401,2.7447828156146,3,1,1
4,1,1,3,10,1,4,APRIL,82,146,300,11,SHANNON,HELENA,JENNA,SALLY,289,309,0,0,1,7.96470318174397,5.46743135695579,3,3,1
4,1,1,3,11,1,1,JEROME,117,230,135,5,SHANE,BILLY,SONNY,REGAN,127,136,0,1,0,5.37785046234785,0.0369532532495214,0,0,1
4,1,1,3,12,1,3,SHELBY,117,209,201,3,DAISY,AIMEE,MATILDA,DEANNA,200,202,0,1,0,4.1652252607455,1.20939195345272,2,0,2
4,1,1,3,13,1,2,ARTHUR,118,234,129,2,BILLY,ANGUS,BOBBY,WARREN,126,136,0,1,0,4.37458656728268,1.69415803946322,1,0,1
4,1,1,3,14,1,1,TRISTAN,81,141,250,12,HARRY,CONNOR,TOMMY,FRASER,247,278,1,NaN,NaN,5.1811700626713,0.0452288181841141,0,0,3
4,1,1,3,15,1,4,EBONY,118,211,200,10,AIMEE,APRIL,SHANICE,SINEAD,200,202,0,1,0,5.75039360237133,2.45530329615576,1,0,1
4,1,1,3,16,1,1,BILLY,45,71,914,15,ANGUS,SHANE,SHAUN,JASON,773,1001,0,1,0,7.14536636869889,3.11644230330421,1,0,1
4,1,1,4,1,1,1,CRAIG,49,81,705,9,MICHAEL,TIMOTHY,AIDAN,SHAUN,680,773,0,0,1,7.81723780072934,5.50515739286493,2,1,2
4,1,1,4,2,1,3,LAURA,13,17,3582,8,NADIA,JOSIE,ABIGAIL,BETHANY,2595,4271,0,1,0,6.62163304720889,1.23484450603428,0,1,1
4,1,1,4,3,1,2,MICHAEL,14,22,4187,16,SPENCER,WILLIAM,LEWIS,CALLUM,3569,4281,0,0,1,4.37808512146876,0.702893908834085,1,0,1
4,1,1,4,4,1,3,NAOMI,49,75,766,5,SARAH,HEATHER,ROBYN,BETHAN,683,825,0,1,0,5.35185798346356,4.25705179205397,3,1,2
4,1,1,4,5,1,4,SARAH,14,18,3111,12,MARTHA,LAURA,ELEANOR,GEORGIA,2555,3723,0,1,0,3.94644093319948,1.27864433730429,3,0,2
4,1,1,4,6,1,1,WILLIAM,13,21,4269,14,MILES,FERGUS,OLIVER,GEORGE,3655,4287,0,0,1,4.88162243497209,1.64264991141681,3,0,1
4,1,1,4,7,1,1,MILES,85,154,223,4,STEFAN,MICHAEL,BRETT,TOMMY,214,247,1,NaN,NaN,9.64307806667057,8.46425699890824,3,3,1
4,1,1,4,8,1,4,HEATHER,50,78,713,3,LAURA,MARTHA,YASMIN,KELLY,661,789,0,0,1,4.49879305288778,0.973818531871075,0,1,1
4,1,1,4,9,1,3,NADIA,85,153,285,13,NIKITA,SARAH,FIONA,CLAUDIA,278,290,0,0,1,13.9356502190931,2.38775151490699,1,1,1
4,1,1,4,10,1,2,FERGUS,122,243,120,7,TIMOTHY,CRAIG,BARNABY,BOBBY,113,126,0,1,0,5.13778216182254,2.47282851676573,2,0,3
4,1,1,4,11,1,2,TIMOTHY,50,82,691,6,WILLIAM,SPENCER,DECLAN,CURTIS,680,757,0,1,0,3.5051399662043,0.0424050967558287,0,0,1
4,1,1,4,12,1,1,SPENCER,121,239,124,2,CRAIG,STEFAN,VINCENT,SONNY,117,127,1,NaN,NaN,2.82452214870136,1.20832021324895,1,0,2
4,1,1,4,13,1,4,JOSIE,122,215,197,1,HEATHER,NAOMI,HEIDI,SHANICE,193,200,1,NaN,NaN,9.85041156987427,1.18453401084116,2,0,1
4,1,1,4,14,1,2,STEFAN,86,155,222,10,FERGUS,MILES,KURTIS,RICKY,214,242,0,0,1,12.7858433546644,10.9240879241552,6,6,1
4,1,1,4,15,1,3,MARTHA,121,214,198,11,NAOMI,NIKITA,JESSIE,MATILDA,194,200,0,0,1,5.44199563011352,2.20292425528169,1,0,1
4,1,1,4,16,1,4,NIKITA,86,155,284,15,JOSIE,NADIA,CIARA,JENNA,276,289,0,1,0,4.21264262827754,2.55592488744878,3,0,1
4,1,1,5,1,0,4,OLIVIA,18,24,2456,2,HOLLY,RHIANNA,RACHEL,ELEANOR,2105,2555,1,NaN,NaN,3.73860596257146,0.464024142551352,0,1,1
4,1,1,5,2,0,1,MARCUS,53,85,674,3,BRIAN,DARYL,ETHAN,AIDAN,604,680,1,NaN,NaN,3.75495818800118,1.091156205468,2,0,2
4,1,1,5,3,0,3,HOLLY,17,23,2498,4,LIBBY,LEANNE,ALICE,ABIGAIL,2357,2595,0,0,1,4.66494523218716,0.216247545235092,0,1,1
4,1,1,5,4,0,4,LEANNE,54,88,616,9,FRANCES,KATHRYN,IMOGEN,YASMIN,555,661,1,NaN,NaN,6.04313040677516,3.38981537344807,3,4,1
4,1,1,5,5,0,2,NATHAN,18,27,2744,12,KIERAN,TRAVIS,ROBERT,LEWIS,2644,3569,0,1,0,4.5929781938321,2.59169162485341,2,4,1
4,1,1,5,6,0,1,KIERAN,17,26,2882,6,DARYL,SIMON,ANDREW,OLIVER,2676,3655,0,0,1,6.47190580464667,5.22131720384641,5,4,2
4,1,1,5,7,0,4,FRANCES,90,161,274,5,RHIANNA,OLIVIA,SABRINA,CIARA,272,276,0,0,1,5.45223950734362,2.26816970692016,1,0,1
4,1,1,5,8,0,3,KATHRYN,53,86,635,8,RHIAN,LIBBY,CLAIRE,ROBYN,564,683,0,0,1,4.82369918924815,1.55392713008041,1,1,1
4,1,1,5,9,0,2,LUCAS,90,169,202,10,TRAVIS,NATHAN,HARLEY,KURTIS,186,214,0,1,0,10.377292808902,3.57879889382457,1,1,1
4,1,1,5,10,0,3,RHIAN,125,219,192,13,OLIVIA,HOLLY,JULIA,JESSIE,184,194,0,1,0,8.56455319220549,6.28524934560119,3,4,2
4,1,1,5,11,0,3,RHIANNA,89,158,276,11,KATHRYN,FRANCES,LORNA,FIONA,274,278,0,0,1,7.09451955273107,1.54117952114029,3,0,1
4,1,1,5,12,0,2,SIMON,54,87,656,14,LUCAS,MARCUS,ZACHARY,DECLAN,574,680,0,1,0,9.02474917614018,5.58452776128252,4,1,2
4,1,1,5,13,0,1,TRAVIS,89,165,205,7,MARCUS,LUCAS,GABRIEL,BRETT,189,214,1,NaN,NaN,10.0269317163038,7.7726964346366,3,2,1
4,1,1,5,14,0,4,LIBBY,126,220,191,1,LEANNE,RHIAN,ALISON,HEIDI,181,193,0,1,0,5.51007742249931,3.34764794041985,4,2,1
4,1,1,5,15,0,2,DARYL,126,257,111,16,SIMON,BRIAN,RUSSELL,BARNABY,111,113,1,NaN,NaN,8.74662763893139,6.01266197790392,4,2,1
4,1,1,5,16,0,1,BRIAN,125,251,113,15,NATHAN,KIERAN,LOGAN,VINCENT,111,117,0,0,1,5.52609193109674,0.0367221996566514,0,0,1
4,1,1,6,1,0,4,MOLLY,22,29,2026,10,AMANDA,POPPY,NATASHA,RACHEL,1751,2105,1,NaN,NaN,6.39510346634779,3.26324817500426,2,0,1
4,1,1,6,2,0,1,BRADLEY,21,31,2557,3,JEREMY,ALBERT,AARON,ANDREW,2511,2676,1,NaN,NaN,2.58128640071664,0.665823175790138,1,0,4
4,1,1,6,3,0,3,PAIGE,21,28,2052,2,MARYAM,JEMIMA,ELLIE,ALICE,1900,2357,1,NaN,NaN,5.41174894059077,1.10574413082213,3,0,3
4,1,1,6,4,0,3,BROOKE,93,166,269,1,ISOBEL,MARYAM,CHARLEY,LORNA,256,274,0,0,1,6.36099196209398,2.42172721131647,2,0,1
4,1,1,6,5,0,2,DAVID,22,32,2517,6,JUSTIN,COREY,JACOB,ROBERT,2249,2644,0,0,1,8.22446962833055,4.3881439154502,1,1,1
4,1,1,6,6,0,3,POPPY,57,92,537,16,BROOKE,MOLLY,MARIA,CLAIRE,511,564,0,0,1,5.58417021408968,2.44703644457331,1,2,3
4,1,1,6,7,0,2,PHILIP,58,103,481,8,ALBERT,BRADLEY,NIALL,ZACHARY,462,574,1,NaN,NaN,4.32129521018942,0.663917659578146,0,1,1
4,1,1,6,8,0,4,ISOBEL,58,94,522,11,JEMIMA,PAIGE,STACEY,IMOGEN,509,555,0,0,1,7.50305357317848,5.1630412182858,4,5,2
4,1,1,6,9,0,1,ALBERT,129,261,110,14,DAVID,WESLEY,STANLEY,LOGAN,108,111,0,1,0,5.59526108756836,3.17935288164881,3,1,1
4,1,1,6,10,0,3,JEMIMA,129,228,177,15,MOLLY,BROOKE,SASKIA,JULIA,171,184,NaN,NaN,NaN,NaN,NaN,4,3,2
4,1,1,6,11,0,4,MARYAM,130,229,176,13,POPPY,AMANDA,ALANA,ALISON,170,181,0,1,0,5.04929163592169,1.89121761944261,3,0,1
4,1,1,6,12,0,2,JEREMY,130,265,108,12,COREY,JUSTIN,USMAN,RUSSELL,106,111,0,0,1,11.2344034310081,9.71564001547813,4,5,1
4,1,1,6,13,0,4,AMANDA,94,170,264,7,PAIGE,ISOBEL,ELISE,SABRINA,253,272,0,0,1,8.68915328018193,4.46172081753321,7,2,1
4,1,1,6,14,0,1,WESLEY,93,178,185,4,PHILIP,JEREMY,CALEB,GABRIEL,177,189,0,1,0,7.58589515394124,4.51129368385591,3,1,1
4,1,1,6,15,0,2,JUSTIN,94,181,182,5,BRADLEY,PHILIP,GAVIN,HARLEY,176,186,0,0,1,5.66204248982831,0.508457343123155,1,0,1
4,1,1,6,16,0,1,COREY,57,101,527,9,WESLEY,DAVID,ISAAC,ETHAN,480,604,1,NaN,NaN,2.76583873960772,0.0439987356658094,0,0,1
4,1,1,7,1,2,4,KELSEY,62,107,438,12,KATRINA,ALICIA,FREYA,STACEY,394,509,0,1,0,6.96568268077681,3.35203946119873,1,1,1
4,1,1,7,2,2,3,CHELSEA,25,34,1735,5,NICOLE,INDIA,AMBER,ELLIE,1422,1900,0,1,0,6.16932473456836,2.65384414307482,1,0,2
4,1,1,7,3,2,1,FRANCIS,97,188,172,13,ELLIS,CHARLIE,ARCHIE,CALEB,169,177,1,NaN,NaN,4.23015553002188,0.656862262010691,0,1,3
4,1,1,7,4,2,1,ELLIS,61,107,443,2,GLENN,MARTIN,STUART,ISAAC,405,480,0,1,0,5.39177587379527,0.0360335457371548,0,0,2
4,1,1,7,5,2,2,MARTIN,62,109,435,15,FRANCIS,ELLIS,HARVEY,NIALL,401,462,1,NaN,NaN,5.63365955257905,3.33460558038496,0,1,2
4,1,1,7,6,2,4,NICOLE,26,36,1679,9,CHELSEA,MADISON,GRACE,NATASHA,1421,1751,0,1,0,0.140936689509545,0.0321476988319773,0,0,1
4,1,1,7,7,2,1,CHARLIE,25,38,1912,7,ASHLEY,ROWAN,REECE,AARON,1811,2511,0,0,1,8.85006574061117,7.22164560643432,6,4,1
4,1,1,7,8,2,2,ASHLEY,26,40,1874,1,CHARLIE,JULIAN,CAMERON,JACOB,1791,2249,0,0,1,7.54592197900638,1.20034931460395,0,1,1
4,1,1,7,9,2,4,TANYA,134,235,169,6,INDIA,NICOLE,SAFFRON,ALANA,166,170,0,1,0,6.56561651952507,5.08537355568842,2,1,1
4,1,1,7,10,2,2,ROWAN,98,188,172,10,JULIAN,GLENN,JESSE,GAVIN,161,176,0,0,1,15.664293234353,10.0216595477686,4,1,2
4,1,1,7,11,2,4,INDIA,98,180,245,4,MADISON,TANYA,ELISHA,ELISE,240,253,0,0,1,11.6921061993344,1.63202384930628,0,1,1
4,1,1,7,12,2,3,KATRINA,97,177,251,11,ALICIA,CHELSEA,BILLIE,CHARLEY,242,256,0,1,0,9.31903304817388,2.79026011408132,1,2,1
4,1,1,7,13,2,1,JULIAN,133,274,102,16,MARTIN,FRANCIS,JASPER,STANLEY,94,108,0,0,1,5.13642618664016,2.14718294878548,3,0,2
4,1,1,7,14,2,2,GLENN,134,278,100,3,ROWAN,ASHLEY,DAMIEN,USMAN,90,106,0,0,1,10.3923882109229,9.12912711613171,6,7,1
4,1,1,7,15,2,3,MADISON,133,235,169,14,KELSEY,KATRINA,MELANIE,SASKIA,166,171,0,0,1,8.74523650994524,4.18769184358825,2,1,1
4,1,1,7,16,2,3,ALICIA,61,98,504,8,TANYA,KELSEY,TAMARA,MARIA,397,511,0,0,1,8.35043891171517,3.67488264039275,1,0,1
4,1,1,8,1,1,3,NATALIE,29,42,1393,3,BROGAN,SIMRAN,LOUISE,AMBER,1309,1422,1,NaN,NaN,9.29517173081695,0.973201988323126,3,0,2
4,1,1,8,2,1,2,ALFIE,66,119,372,6,CHARLES,EDWARD,DARREN,HARVEY,343,401,0,0,1,8.58470443166152,3.79828028815973,3,0,1
4,1,1,8,3,1,3,ANNIE,65,119,389,14,NIAMH,NADINE,ANNABEL,TAMARA,380,397,0,1,0,6.55113045003964,3.61988076551643,4,2,1
4,1,1,8,4,1,2,EDWARD,30,45,1658,11,FRANK,GARETH,DOMINIC,CAMERON,1519,1791,1,NaN,NaN,14.5738686485856,7.64766698956373,3,1,3
4,1,1,8,5,1,1,GARETH,65,117,373,8,ALFIE,FRANK,TAYLOR,STUART,354,405,0,1,0,4.870830519023,1.19383985250897,3,0,2
4,1,1,8,6,1,4,JODIE,30,43,1354,1,NADINE,ANNIE,ABBIE,GRACE,1297,1421,0,1,0,6.87999634641164,1.46218893394689,2,0,1
4,1,1,8,7,1,1,CHARLES,29,44,1738,12,FREDDIE,ROBIN,SCOTT,REECE,1632,1811,0,1,0,9.24971486363211,3.63823195017176,4,1,1
4,1,1,8,8,1,4,NIAMH,66,120,381,16,NATALIE,JODIE,JOANNA,FREYA,374,394,0,1,0,6.75174116468406,4.99916562307044,3,1,1
4,1,1,8,9,1,4,CARLY,102,187,235,5,JODIE,BROGAN,ANTONIA,ELISHA,234,240,1,NaN,NaN,9.27082847589918,7.04796690856165,4,3,1
4,1,1,8,10,1,3,BROGAN,137,241,165,4,SIMRAN,CARLY,SHONA,MELANIE,165,166,0,1,0,13.21619586616,9.39311562415969,2,2,4
4,1,1,8,11,1,2,FRANK,138,292,86,7,MAXWELL,CHARLES,JIMMY,DAMIEN,80,90,0,1,0,8.53182831003505,7.06461598831811,2,1,3
4,1,1,8,12,1,4,NADINE,138,241,165,2,CARLY,NATALIE,MIRIAM,SAFFRON,161,166,0,1,0,8.48103677868494,2.54264786829299,2,0,1
4,1,1,8,13,1,1,FREDDIE,137,290,89,10,ROBIN,MAXWELL,WAYNE,JASPER,84,94,0,1,0,8.20749875609181,0.65215375610569,1,0,1
4,1,1,8,14,1,1,ROBIN,101,198,161,13,GARETH,ALFIE,REUBEN,ARCHIE,160,169,0,0,1,11.8523188888357,6.04139314807253,6,3,1
4,1,1,8,15,1,2,MAXWELL,102,200,160,9,EDWARD,FREDDIE,JARED,JESSE,158,161,0,1,0,12.2315824137331,1.84512738294143,2,0,1
4,1,1,8,16,1,3,SIMRAN,101,184,240,15,ANNIE,NIAMH,SADIE,BILLIE,235,242,1,NaN,NaN,8.80580981133971,2.82171345026291,2,0,2
4,1,1,9,1,0,1,BRANDON,33,53,1337,11,DYLAN,RAYMOND,HENRY,SCOTT,1135,1632,0,0,1,8.27130891116394,5.467021229284,4,2,1
4,1,1,9,2,0,1,ADRIAN,105,204,155,5,BLAKE,HAYDEN,FELIX,REUBEN,149,160,0,1,0,3.33189152678824,1.67613285371044,2,0,1
4,1,1,9,3,0,3,MELISSA,33,46,1282,3,GEMMA,SIMONE,KIRSTY,LOUISE,1202,1309,0,1,0,6.37986835053016,1.8624116347637,2,1,2
4,1,1,9,4,0,1,HAYDEN,69,124,340,14,JONAH,DYLAN,MASON,TAYLOR,320,354,0,0,1,6.14035169423732,5.02343045796442,2,1,1
4,1,1,9,5,0,4,GEMMA,34,50,1261,4,ALISHA,MELISSA,JASMINE,ABBIE,1145,1297,0,1,0,3.06113516124606,0.435974114778219,1,0,1
4,1,1,9,6,0,2,DYLAN,34,57,1186,15,HAYDEN,BRANDON,PETER,DOMINIC,1128,1519,0,0,1,3.78358990598645,2.97003964868782,4,1,1
4,1,1,9,7,0,4,BRYONY,70,129,362,9,ESTHER,SELINA,TIFFANY,JOANNA,346,374,0,0,1,6.62540742351848,4.81122259506083,4,4,1
4,1,1,9,8,0,3,ALISHA,69,128,363,7,SELINA,GEMMA,ELOISE,ANNABEL,351,380,1,NaN,NaN,5.78351268781989,4.41806160147826,4,2,1
4,1,1,9,9,0,1,JONAH,141,312,78,2,GREGORY,ADRIAN,ANTON,WAYNE,76,84,1,NaN,NaN,4.99183169922617,1.4048047131364,1,0,1
4,1,1,9,10,0,2,RAYMOND,142,312,78,12,BRANDON,BLAKE,COLIN,JIMMY,76,80,1,NaN,NaN,5.31927131282282,0.273146523439209,0,1,2
4,1,1,9,11,0,2,BLAKE,106,207,154,13,RAYMOND,GREGORY,CALVIN,JARED,147,158,0,0,1,10.9195807263313,5.08775620209053,2,2,1
4,1,1,9,12,0,3,ESTHER,105,191,231,8,CARLA,ALISHA,KIRSTEN,SADIE,225,235,1,NaN,NaN,3.38445787433011,1.97128325188532,1,0,1
4,1,1,9,13,0,4,CARLA,106,192,230,1,SIMONE,BRYONY,KIERA,ANTONIA,221,234,1,NaN,NaN,4.37206841350417,2.00068114242458,3,0,1
4,1,1,9,14,0,3,SELINA,141,248,158,10,BRYONY,ESTHER,PARIS,SHONA,157,165,1,NaN,NaN,4.22763076612318,1.70409905318229,2,0,4
4,1,1,9,15,0,2,GREGORY,70,125,339,16,ADRIAN,JONAH,GRANT,DARREN,307,343,1,NaN,NaN,9.82052212706185,8.98163439327618,3,4,1
4,1,1,9,16,0,4,SIMONE,142,248,158,6,MELISSA,CARLA,NANCY,MIRIAM,156,161,0,1,0,5.69392638494901,0.0365593504247954,0,0,1
5,1,1,1,1,0,2,LOUIS,38,61,1100,3,ROBBIE,THOMAS,ANTHONY,PETER,1045,1128,1,NaN,NaN,5.3538160801254,1.20350504411908,2,0,3
5,1,1,1,2,0,2,THOMAS,2,3,9603,9,ALFRED,OSCAR,JOSHUA,JORDAN,7887,5750,0,1,0,4.3530835590791,0.0442904821538832,0,0,3
5,1,1,1,3,0,4,HARRIET,38,60,1046,5,KERRY,CHLOE,AMELIA,JASMINE,929,1145,1,NaN,NaN,4.33833458724257,1.65175474547141,3,0,4
5,1,1,1,4,0,1,STEPHEN,37,60,1122,1,DANIEL,ROBBIE,RICHARD,HENRY,1089,1135,1,NaN,NaN,8.65642659524747,4.31233309456729,3,0,3
5,1,1,1,5,0,4,CHLOE,2,2,6824,14,CARYS,MAISIE,EMILY,MEGAN,6415,4948,0,1,0,5.49845233144879,1.18021940778999,1,0,2
5,1,1,1,6,0,3,SOPHIE,1,1,7087,15,MAISIE,HAYLEY,JESSICA,REBECCA,6711,5828,0,0,1,6.77238786238013,4.49375824761228,1,2,1
5,1,1,1,7,0,1,DANIEL,1,2,10338,12,OSCAR,STEPHEN,JAMES,SAMUEL,9385,6161,0,1,0,5.09914573261631,2.59449611685704,2,0,3
5,1,1,1,8,0,3,HAYLEY,37,57,1088,16,SOPHIE,KERRY,LYDIA,KIRSTY,1009,1202,0,0,1,3.30651138501707,1.9178350547736,3,0,2
5,1,1,1,9,0,3,CARYS,109,199,217,2,HARRIET,SOPHIE,ELENA,KIRSTEN,213,225,1,NaN,NaN,7.07481930345239,0.0413513841631357,0,0,2
5,1,1,1,10,0,3,MAISIE,73,135,335,8,CASEY,HARRIET,SASHA,ELOISE,333,351,1,NaN,NaN,6.41452518934966,3.3680188159924,3,0,3
5,1,1,1,11,0,2,DOUGLAS,110,218,142,11,THOMAS,ALFRED,JAMAL,CALVIN,139,147,0,1,0,8.35393536266929,5.41779689637769,3,2,2
5,1,1,1,12,0,4,KERRY,74,136,333,13,HAYLEY,CASEY,SIOBHAN,TIFFANY,332,346,0,1,0,8.19990313175367,2.40995759911311,3,1,1
5,1,1,1,13,0,1,ALFRED,109,218,142,4,LOUIS,DANIEL,DUNCAN,FELIX,139,149,0,1,0,7.67207694656099,2.51122397716972,3,0,2
5,1,1,1,14,0,1,OSCAR,73,128,307,7,DOUGLAS,LOUIS,LLOYD,MASON,299,320,0,1,0,3.43194855406182,0.787385314484709,0,1,1
5,1,1,1,15,0,2,ROBBIE,74,130,302,10,STEPHEN,DOUGLAS,TOBIAS,GRANT,296,307,0,1,0,4.73482858165517,1.70337764914439,3,0,3
5,1,1,1,16,0,4,CASEY,110,201,215,6,CHLOE,CARYS,VANESSA,KIERA,213,221,0,1,0,10.0362730122142,5.92371505351912,3,0,3
5,1,1,2,1,2,4,PHOEBE,42,65,910,16,HANNAH,AISHA,ROSIE,AMELIA,879,929,1,NaN,NaN,3.64776764358976,1.93139420569059,1,2,4
5,1,1,2,2,2,1,PATRICK,41,66,1039,1,DAMON,JOSEPH,JASON,RICHARD,1001,1089,1,NaN,NaN,5.50903092091903,2.81482961525035,3,0,4
5,1,1,2,3,2,2,CIARAN,78,136,278,11,PERRY,MATTHEW,KEVIN,TOBIAS,250,296,0,1,0,6.61712344572879,4.64201233568019,2,3,4
5,1,1,2,4,2,3,LAUREN,5,5,6299,5,ELLEN,SUMMER,REBECCA,JESSICA,5828,6711,1,NaN,NaN,3.58101027812518,0.0351333681028336,0,0,4
5,1,1,2,5,2,2,TYLER,42,67,1007,2,JOSEPH,MORGAN,ELLIOT,ANTHONY,919,1045,0,0,1,5.3454747145006,2.92239483304729,3,0,2
5,1,1,2,6,2,2,JOSEPH,6,8,6193,6,CIARAN,PERRY,JORDAN,JOSHUA,5750,7887,1,NaN,NaN,1.32741798047209,0.0231011540163308,0,0,4
5,1,1,2,7,2,1,MATTHEW,5,6,7426,7,PATRICK,DAMON,SAMUEL,JAMES,6161,9385,0,1,0,7.50643494803808,2.65838589378109,1,1,2
5,1,1,2,8,2,4,HANNAH,6,6,5916,12,MILLIE,POLLY,MEGAN,EMILY,4948,6415,1,NaN,NaN,6.51543612343085,3.21288990670291,3,0,4
5,1,1,2,9,2,2,DAMON,114,226,136,13,MORGAN,TYLER,WARREN,JAMAL,136,139,1,NaN,NaN,4.3062860401551,2.70153432813822,1,2,4
5,1,1,2,10,2,1,PERRY,113,220,139,15,MATTHEW,PATRICK,REGAN,DUNCAN,136,139,1,NaN,NaN,6.72126312108594,3.91154943525908,3,2,3
5,1,1,2,11,2,4,SUMMER,114,206,203,4,AISHA,PHOEBE,SINEAD,VANESSA,202,213,1,NaN,NaN,2.5033894872613,0.0388749942794675,0,0,3
5,1,1,2,12,2,1,MORGAN,77,133,294,8,TYLER,CIARAN,FRASER,LLOYD,278,299,0,1,0,5.86270638584392,3.31190133380005,4,1,2
5,1,1,2,13,2,3,ELLEN,41,63,929,10,SUMMER,HANNAH,CAITLIN,LYDIA,906,1009,0,1,0,6.90338774460542,3.29479194960732,2,2,2
5,1,1,2,14,2,3,POLLY,113,204,212,14,LAUREN,ELLEN,DEANNA,ELENA,202,213,0,1,0,5.73505092192499,2.81528541278385,2,0,2
5,1,1,2,15,2,3,AISHA,77,139,328,9,PHOEBE,MILLIE,SHAUNA,SASHA,316,333,0,0,1,4.51278396457201,1.41282668996428,2,0,2
5,1,1,2,16,2,4,MILLIE,78,140,324,3,POLLY,LAUREN,SALLY,SIOBHAN,309,332,1,NaN,NaN,3.49893817499105,0.0453625228110468,0,0,2
5,1,1,3,1,0,1,CONNOR,9,13,5009,14,JEROME,SHANE,GEORGE,SAMUEL,4287,6161,0,1,0,3.44569939836219,0.0347025087248767,0,0,2
5,1,1,3,2,0,3,SHELBY,117,209,201,5,KATIE,HELENA,MATILDA,DEANNA,200,202,0,1,0,7.50788496715541,1.32153227299568,3,0,3
5,1,1,3,3,0,4,DAISY,46,71,828,3,EBONY,SHELBY,KELLY,ROSIE,789,879,0,0,1,2.99360531356069,0.0370758408680558,0,0,2
5,1,1,3,4,0,3,SHANNON,9,11,4649,7,SHELBY,DAISY,BETHANY,REBECCA,4271,5828,0,1,0,4.54568191159342,0.94001740263775,1,0,2
5,1,1,3,5,0,3,AIMEE,45,70,876,13,SHANNON,EBONY,BETHAN,CAITLIN,825,906,1,NaN,NaN,3.64921766270709,0.393592453896417,0,1,3
5,1,1,3,6,0,4,KATIE,10,12,4337,12,HELENA,APRIL,GEORGIA,MEGAN,3723,4948,1,NaN,NaN,4.21021581428067,0.0336602135939756,0,0,1
5,1,1,3,7,0,3,HELENA,81,145,308,15,APRIL,SHANNON,CLAUDIA,SHAUNA,290,316,1,NaN,NaN,4.59993894655781,1.13158908394689,1,1,2
5,1,1,3,8,0,2,HARRY,10,17,4434,9,TRISTAN,ANGUS,CALLUM,JORDAN,4281,5750,1,NaN,NaN,2.13796484140039,0.709241723525338,1,0,4
5,1,1,3,9,0,2,SHANE,46,74,846,2,ARTHUR,JEROME,CURTIS,ELLIOT,757,919,1,NaN,NaN,5.04118673218181,1.91183487208036,1,2,3
5,1,1,3,10,0,1,TRISTAN,81,141,250,10,ANGUS,CONNOR,TOMMY,FRASER,247,278,0,0,1,5.71067101090739,0.0422290272981627,0,0,2
5,1,1,3,11,0,4,EBONY,118,211,200,8,AIMEE,KATIE,SHANICE,SINEAD,200,202,1,NaN,NaN,2.05401786894072,0.741717824959778,1,0,4
5,1,1,3,12,0,2,ARTHUR,118,234,129,6,BILLY,HARRY,BOBBY,WARREN,126,136,1,NaN,NaN,2.49788416191586,0.549887447748915,1,0,2
5,1,1,3,13,0,2,ANGUS,82,144,247,1,SHANE,BILLY,RICKY,KEVIN,242,250,1,NaN,NaN,3.28494227565534,1.14637351002602,1,0,4
5,1,1,3,14,0,1,JEROME,117,230,135,4,HARRY,TRISTAN,SONNY,REGAN,127,136,0,1,0,5.27776939829346,1.97239555415581,2,0,3
5,1,1,3,15,0,1,BILLY,45,71,914,11,CONNOR,ARTHUR,SHAUN,JASON,773,1001,0,0,1,6.62759597288095,2.79497913605883,1,0,1
5,1,1,3,16,0,4,APRIL,82,146,300,16,DAISY,AIMEE,JENNA,SALLY,289,309,1,NaN,NaN,6.42689091384818,4.97073010535678,3,4,2
5,1,1,4,1,1,1,WILLIAM,13,21,4269,4,FERGUS,TIMOTHY,OLIVER,GEORGE,3655,4287,0,1,0,4.14316069312918,1.34105585188081,1,0,2
5,1,1,4,2,1,2,MICHAEL,14,22,4187,15,CRAIG,MILES,LEWIS,CALLUM,3569,4281,0,0,1,5.1329210223339,0.793264411855489,1,1,2
5,1,1,4,3,1,3,LAURA,13,17,3582,6,JOSIE,HEATHER,ABIGAIL,BETHANY,2595,4271,0,1,0,6.59771043604997,2.45804469159339,3,1,2
5,1,1,4,4,1,4,HEATHER,50,78,713,11,NADIA,NIKITA,YASMIN,KELLY,661,789,1,NaN,NaN,6.42473541508662,2.4720476216753,2,2,2
5,1,1,4,5,1,1,CRAIG,49,81,705,1,MICHAEL,SPENCER,AIDAN,SHAUN,680,773,1,NaN,NaN,5.51443228717835,3.55456710950239,2,2,1
5,1,1,4,6,1,3,NADIA,85,153,285,10,MARTHA,SARAH,FIONA,CLAUDIA,278,290,0,1,0,4.92587926563283,0.0414117765903939,0,0,3
5,1,1,4,7,1,4,SARAH,14,18,3111,16,NAOMI,NADIA,ELEANOR,GEORGIA,2555,3723,0,0,1,4.70842777787766,0.996681421253015,2,0,2
5,1,1,4,8,1,3,NAOMI,49,75,766,2,SARAH,MARTHA,ROBYN,BETHAN,683,825,1,NaN,NaN,6.30254351258918,4.93292324573849,3,3,4
5,1,1,4,9,1,4,NIKITA,86,155,284,8,HEATHER,NAOMI,CIARA,JENNA,276,289,1,NaN,NaN,4.48492653157155,2.32695377003984,2,0,3
5,1,1,4,10,1,2,STEFAN,86,155,222,3,TIMOTHY,CRAIG,KURTIS,RICKY,214,242,1,NaN,NaN,5.56661554843595,3.73666619393043,3,0,1
5,1,1,4,11,1,1,SPENCER,121,239,124,14,WILLIAM,FERGUS,VINCENT,SONNY,117,127,1,NaN,NaN,5.52601471291564,2.06511685483565,1,0,2
5,1,1,4,12,1,4,JOSIE,122,215,197,9,NIKITA,LAURA,HEIDI,SHANICE,193,200,0,1,0,5.77767956079333,2.81625950353919,2,0,2
5,1,1,4,13,1,2,FERGUS,122,243,120,5,STEFAN,WILLIAM,BARNABY,BOBBY,113,126,1,NaN,NaN,3.22267558269959,0.671488946682075,0,1,4
5,1,1,4,14,1,3,MARTHA,121,214,198,13,LAURA,JOSIE,JESSIE,MATILDA,194,200,0,0,1,3.3088465587789,1.35842693658196,2,0,2
5,1,1,4,15,1,2,TIMOTHY,50,82,691,7,MILES,STEFAN,DECLAN,CURTIS,680,757,0,1,0,6.35374577253242,3.84307073545642,2,1,2
5,1,1,4,16,1,1,MILES,85,154,223,12,SPENCER,MICHAEL,BRETT,TOMMY,214,247,1,NaN,NaN,3.61244077936863,1.49725139353541,2,0,4
5,1,1,5,1,1,3,RHIANNA,89,158,276,11,RHIAN,HOLLY,LORNA,FIONA,274,278,1,NaN,NaN,5.94930762037984,2.54067144356668,2,1,1
5,1,1,5,2,1,2,NATHAN,18,27,2744,16,KIERAN,MARCUS,ROBERT,LEWIS,2644,3569,0,1,0,5.38271250322578,3.15630040213,2,0,2
5,1,1,5,3,1,1,MARCUS,53,85,674,1,TRAVIS,BRIAN,ETHAN,AIDAN,604,680,1,NaN,NaN,3.88914685034251,0.0368796405964531,0,0,1
5,1,1,5,4,1,1,KIERAN,17,26,2882,15,LUCAS,DARYL,ANDREW,OLIVER,2676,3655,0,0,1,5.63925321311399,3.21010314185696,3,2,1
5,1,1,5,5,1,3,KATHRYN,53,86,635,9,RHIANNA,RHIAN,CLAIRE,ROBYN,564,683,0,1,0,3.75296704075299,1.64388299854181,1,0,1
5,1,1,5,6,1,2,SIMON,54,87,656,5,NATHAN,LUCAS,ZACHARY,DECLAN,574,680,1,NaN,NaN,7.67430545706884,5.40408601323725,3,3,1
5,1,1,5,7,1,4,OLIVIA,18,24,2456,10,HOLLY,KATHRYN,RACHEL,ELEANOR,2105,2555,1,NaN,NaN,3.2487032154022,0.791642830197816,2,0,4
5,1,1,5,8,1,3,HOLLY,17,23,2498,7,FRANCES,LIBBY,ALICE,ABIGAIL,2357,2595,0,1,0,5.03574179924908,0.317679176208912,0,1,1
5,1,1,5,9,1,1,TRAVIS,89,165,205,13,BRIAN,KIERAN,GABRIEL,BRETT,189,214,0,1,0,4.034247612537,1.13613474060548,1,0,1
5,1,1,5,10,1,4,FRANCES,90,161,274,12,LIBBY,LEANNE,SABRINA,CIARA,272,276,1,NaN,NaN,3.15519921688247,0.0331383148732129,0,0,3
5,1,1,5,11,1,2,LUCAS,90,169,202,6,DARYL,SIMON,HARLEY,KURTIS,186,214,1,NaN,NaN,2.24868188274559,1.21812872419832,1,1,4
5,1,1,5,12,1,1,BRIAN,125,251,113,4,MARCUS,NATHAN,LOGAN,VINCENT,111,117,0,0,1,4.17973296332639,1.43763715990644,2,0,1
5,1,1,5,13,1,2,DARYL,126,257,111,8,SIMON,TRAVIS,RUSSELL,BARNABY,111,113,1,NaN,NaN,4.53196531972208,2.64671843789984,1,1,4
5,1,1,5,14,1,4,LEANNE,54,88,616,3,OLIVIA,FRANCES,IMOGEN,YASMIN,555,661,0,1,0,5.74410107228323,2.37410462973639,3,0,1
5,1,1,5,15,1,3,RHIAN,125,219,192,14,KATHRYN,OLIVIA,JULIA,JESSIE,184,194,0,1,0,4.14715049912047,1.30485765416233,1,0,2
5,1,1,5,16,1,4,LIBBY,126,220,191,2,LEANNE,RHIANNA,ALISON,HEIDI,181,193,0,1,0,3.27666190337914,1.9906740275328,1,2,4
5,1,1,6,1,0,3,PAIGE,21,28,2052,16,JEMIMA,BROOKE,ELLIE,ALICE,1900,2357,0,1,0,1.37858688937558,0.0307956296310294,0,0,1
5,1,1,6,2,0,2,DAVID,22,32,2517,9,JEREMY,ALBERT,JACOB,ROBERT,2249,2644,1,NaN,NaN,5.03742046828847,3.78221169678727,3,1,2
5,1,1,6,3,0,2,PHILIP,58,103,481,6,COREY,BRADLEY,NIALL,ZACHARY,462,574,0,1,0,4.784745174009,2.99570462635893,2,2,2
5,1,1,6,4,0,3,POPPY,57,92,537,11,PAIGE,MOLLY,MARIA,CLAIRE,511,564,0,1,0,3.56481669547793,1.11043611142668,1,0,3
5,1,1,6,5,0,3,BROOKE,93,166,269,4,AMANDA,ISOBEL,CHARLEY,LORNA,256,274,0,0,1,6.7879387614812,4.96692928858101,3,3,1
5,1,1,6,6,0,4,ISOBEL,58,94,522,3,POPPY,PAIGE,STACEY,IMOGEN,509,555,0,1,0,3.10596797338803,0.0412846820690902,0,0,2
5,1,1,6,7,0,4,MOLLY,22,29,2026,14,MARYAM,JEMIMA,NATASHA,RACHEL,1751,2105,0,1,0,1.82669056723535,0.641341709357221,1,0,3
5,1,1,6,8,0,1,BRADLEY,21,31,2557,13,ALBERT,WESLEY,AARON,ANDREW,2511,2676,0,1,0,2.10264458728489,0.0356826086645015,0,0,1
5,1,1,6,9,0,4,MARYAM,130,229,176,5,ISOBEL,POPPY,ALANA,ALISON,170,181,1,NaN,NaN,5.21361010891269,3.33070170589781,4,1,2
5,1,1,6,10,0,2,JUSTIN,94,181,182,1,WESLEY,JEREMY,GAVIN,HARLEY,176,186,1,NaN,NaN,4.6263490646088,3.06349917914486,3,0,3
5,1,1,6,11,0,3,JEMIMA,129,228,177,15,MOLLY,AMANDA,SASKIA,JULIA,171,184,1,NaN,NaN,2.49290343941539,0.722195748370723,0,1,2
5,1,1,6,12,0,1,COREY,57,101,527,8,BRADLEY,DAVID,ISAAC,ETHAN,480,604,1,NaN,NaN,2.7465302899509,1.62668678144109,1,2,3
5,1,1,6,13,0,2,JEREMY,130,265,108,2,PHILIP,COREY,USMAN,RUSSELL,106,111,0,0,1,4.77605227039021,3.41924030536029,3,1,1
5,1,1,6,14,0,1,WESLEY,93,178,185,7,JUSTIN,PHILIP,CALEB,GABRIEL,177,189,0,1,0,7.05417080300685,1.71749595580332,1,3,2
5,1,1,6,15,0,1,ALBERT,129,261,110,10,DAVID,JUSTIN,STANLEY,LOGAN,108,111,0,0,1,5.91749072780658,4.52239206881495,3,4,2
5,1,1,6,16,0,4,AMANDA,94,170,264,12,BROOKE,MARYAM,ELISE,SABRINA,253,272,0,0,1,4.30235001647088,0.43073980420013,1,0,1
5,1,1,7,1,1,2,MARTIN,62,109,435,14,ASHLEY,FRANCIS,HARVEY,NIALL,401,462,0,1,0,5.31040714710252,1.7811790163687,2,1,2
5,1,1,7,2,1,4,KELSEY,62,107,438,10,NICOLE,KATRINA,FREYA,STACEY,394,509,1,NaN,NaN,6.2642967797874,4.45879343748675,3,4,4
5,1,1,7,3,1,3,ALICIA,61,98,504,1,CHELSEA,KELSEY,TAMARA,MARIA,397,511,1,NaN,NaN,4.56526197692438,3.28993171149341,2,0,4
5,1,1,7,4,1,2,ROWAN,98,188,172,4,MARTIN,CHARLIE,JESSE,GAVIN,161,176,1,NaN,NaN,2.80525035514438,1.27208890486509,1,1,4
5,1,1,7,5,1,2,ASHLEY,26,40,1874,15,ROWAN,JULIAN,CAMERON,JACOB,1791,2249,0,0,1,3.44306887261337,0.0335066786210518,0,0,1
5,1,1,7,6,1,1,CHARLIE,25,38,1912,9,JULIAN,GLENN,REECE,AARON,1811,2511,0,1,0,2.89664993305632,0.463285912759602,0,1,2
5,1,1,7,7,1,3,CHELSEA,25,34,1735,6,MADISON,TANYA,AMBER,ELLIE,1422,1900,1,NaN,NaN,5.71146843128372,4.08719043624296,3,1,3
5,1,1,7,8,1,4,NICOLE,26,36,1679,5,INDIA,MADISON,GRACE,NATASHA,1421,1751,1,NaN,NaN,3.95519543108821,1.89016510867805,2,1,4
5,1,1,7,9,1,4,TANYA,134,235,169,2,KATRINA,ALICIA,SAFFRON,ALANA,166,170,0,0,1,3.39684192687855,1.49010255295434,1,1,1
5,1,1,7,10,1,1,ELLIS,61,107,443,13,CHARLIE,MARTIN,STUART,ISAAC,405,480,0,1,0,3.22282761537645,1.21638605721819,0,1,1
5,1,1,7,11,1,4,INDIA,98,180,245,3,KELSEY,CHELSEA,ELISHA,ELISE,240,253,0,1,0,4.4898474625661,1.66886052415066,1,0,1
5,1,1,7,12,1,3,MADISON,133,235,169,7,ALICIA,INDIA,MELANIE,SASKIA,166,171,0,0,1,5.68726188558503,3.7626187116839,2,2,1
5,1,1,7,13,1,3,KATRINA,97,177,251,16,TANYA,NICOLE,BILLIE,CHARLEY,242,256,0,0,1,2.91471267628367,1.37922416465881,1,0,1
5,1,1,7,14,1,2,GLENN,134,278,100,11,FRANCIS,ELLIS,DAMIEN,USMAN,90,106,1,NaN,NaN,1.6062684332137,0.0428912407514872,0,0,4
5,1,1,7,15,1,1,FRANCIS,97,188,172,8,GLENN,ASHLEY,ARCHIE,CALEB,169,177,1,NaN,NaN,4.25288291199831,1.075202990658,2,0,1
5,1,1,7,16,1,1,JULIAN,133,274,102,12,ELLIS,ROWAN,JASPER,STANLEY,94,108,1,NaN,NaN,5.43044505310536,2.13848493734258,3,0,2
5,1,1,8,1,2,1,CHARLES,29,44,1738,13,FRANK,FREDDIE,SCOTT,REECE,1632,1811,0,1,0,5.39563047287811,2.93986356719688,1,1,1
5,1,1,8,2,2,1,GARETH,65,117,373,14,CHARLES,FRANK,TAYLOR,STUART,354,405,1,NaN,NaN,4.30580440304766,0.0360539770044852,0,0,4
5,1,1,8,3,2,2,EDWARD,30,45,1658,12,MAXWELL,ROBIN,DOMINIC,CAMERON,1519,1791,0,1,0,3.59780598228099,0.552343105897307,0,1,1
5,1,1,8,4,2,4,CARLY,102,187,235,2,SIMRAN,NIAMH,ANTONIA,ELISHA,234,240,1,NaN,NaN,3.95070686178224,2.47483258378634,0,1,2
5,1,1,8,5,2,4,JODIE,30,43,1354,16,CARLY,SIMRAN,ABBIE,GRACE,1297,1421,0,1,0,4.79285879110103,3.41993376663595,2,2,2
5,1,1,8,6,2,4,NIAMH,66,120,381,10,BROGAN,ANNIE,JOANNA,FREYA,374,394,0,1,0,2.84440387570066,1.67627376937889,3,0,1
5,1,1,8,7,2,2,ALFIE,66,119,372,6,FREDDIE,GARETH,DARREN,HARVEY,343,401,1,NaN,NaN,6.40222045818518,4.71250682044774,3,4,1
5,1,1,8,8,2,4,NADINE,138,241,165,1,ANNIE,JODIE,MIRIAM,SAFFRON,161,166,1,NaN,NaN,4.67346236680169,2.72666298503464,2,0,1
5,1,1,8,9,2,3,NATALIE,29,42,1393,9,NADINE,BROGAN,LOUISE,AMBER,1309,1422,0,0,1,5.61520320699492,0.994899394034292,0,1,1
5,1,1,8,10,2,1,ROBIN,101,198,161,11,EDWARD,MAXWELL,REUBEN,ARCHIE,160,169,0,0,1,6.99060161670786,4.95280076628842,4,1,3
5,1,1,8,11,2,2,FRANK,138,292,86,7,GARETH,EDWARD,JIMMY,DAMIEN,80,90,0,1,0,5.37950088815705,1.3391818839591,2,0,3
5,1,1,8,12,2,3,SIMRAN,101,184,240,15,JODIE,CARLY,SADIE,BILLIE,235,242,0,1,0,4.05850042906241,1.60101699641382,0,1,1
5,1,1,8,13,2,1,FREDDIE,137,290,89,5,ALFIE,CHARLES,WAYNE,JASPER,84,94,0,0,1,4.50533706785063,0.0402273639629129,0,0,1
5,1,1,8,14,2,3,ANNIE,65,119,389,4,NATALIE,NADINE,ANNABEL,TAMARA,380,397,0,1,0,4.34396790848405,2.59461750261835,2,3,2
5,1,1,8,15,2,2,MAXWELL,102,200,160,8,ROBIN,ALFIE,JARED,JESSE,158,161,0,1,0,2.59726305137156,0.552489730282105,0,1,1
5,1,1,8,16,2,3,BROGAN,137,241,165,3,NIAMH,NATALIE,SHONA,MELANIE,165,166,0,1,0,3.05228962404362,0.554067745280918,1,0,1
5,1,1,9,1,2,1,BRANDON,33,53,1337,13,RAYMOND,ADRIAN,HENRY,SCOTT,1135,1632,1,NaN,NaN,5.0606436089729,2.59789822343737,2,2,2
5,1,1,9,2,2,3,ALISHA,69,128,363,14,GEMMA,MELISSA,ELOISE,ANNABEL,351,380,0,0,1,2.59048858372262,0.392283049979596,0,1,1
5,1,1,9,3,2,2,GREGORY,70,125,339,5,ADRIAN,JONAH,GRANT,DARREN,307,343,0,1,0,5.30313932441641,3.82033854610927,2,2,2
5,1,1,9,4,2,4,BRYONY,70,129,362,8,ESTHER,SELINA,TIFFANY,JOANNA,346,374,0,0,1,2.09634033925249,0.0360831216094084,0,0,1
5,1,1,9,5,2,2,DYLAN,34,57,1186,1,BRANDON,HAYDEN,PETER,DOMINIC,1128,1519,0,1,0,2.48858793497493,0.406034495201311,1,0,1
5,1,1,9,6,2,3,MELISSA,33,46,1282,3,SIMONE,ESTHER,KIRSTY,LOUISE,1202,1309,0,1,0,2.9324584343849,2.16043653206725,2,0,1
5,1,1,9,7,2,1,HAYDEN,69,124,340,16,DYLAN,BRANDON,MASON,TAYLOR,320,354,0,1,0,1.75910062760522,0.0358718983479775,0,0,2
5,1,1,9,8,2,4,GEMMA,34,50,1261,6,MELISSA,ALISHA,JASMINE,ABBIE,1145,1297,1,NaN,NaN,3.61286322587694,1.93441953566798,1,0,1
5,1,1,9,9,2,1,ADRIAN,105,204,155,9,JONAH,RAYMOND,FELIX,REUBEN,149,160,0,1,0,7.13002428917389,5.69362832879415,4,4,1
5,1,1,9,10,2,1,JONAH,141,312,78,2,GREGORY,BLAKE,ANTON,WAYNE,76,84,0,1,0,1.13281646231189,0.395927026722347,0,1,1
5,1,1,9,11,2,4,SIMONE,142,248,158,11,CARLA,BRYONY,NANCY,MIRIAM,156,161,0,1,0,10.004932048003,6.82351320461021,2,0,1
5,1,1,9,12,2,3,ESTHER,105,191,231,4,SELINA,SIMONE,KIRSTEN,SADIE,225,235,1,NaN,NaN,7.15351333680155,6.35041367307713,4,1,2
5,1,1,9,13,2,2,BLAKE,106,207,154,10,HAYDEN,DYLAN,CALVIN,JARED,147,158,0,1,0,4.99812242655025,1.86798786863801,1,2,1
5,1,1,9,14,2,4,CARLA,106,192,230,12,ALISHA,GEMMA,KIERA,ANTONIA,221,234,1,NaN,NaN,2.83825917184004,1.52785112334823,1,2,1
5,1,1,9,15,2,2,RAYMOND,142,312,78,7,BLAKE,GREGORY,COLIN,JIMMY,76,80,0,1,0,4.54911436462135,3.42167913775484,3,1,1
5,1,1,9,16,2,3,SELINA,141,248,158,15,BRYONY,CARLA,PARIS,SHONA,157,165,1,NaN,NaN,2.48267308287905,1.34905108778912,1,2,2
6,1,1,1,1,2,1,DANIEL,1,2,10338,8,OSCAR,DOUGLAS,JAMES,SAMUEL,9385,6161,1,NaN,NaN,2.36642047058558,0.0348291981499642,0,0,3
6,1,1,1,2,2,3,SOPHIE,1,1,7087,2,MAISIE,CASEY,JESSICA,REBECCA,6711,5828,0,0,1,7.98907050630078,2.54790997767122,1,1,1
6,1,1,1,3,2,4,CHLOE,2,2,6824,11,CASEY,HAYLEY,EMILY,MEGAN,6415,4948,0,1,0,6.48231438704534,1.62920815253165,3,0,2
6,1,1,1,4,2,4,HARRIET,38,60,1046,13,KERRY,MAISIE,AMELIA,JASMINE,929,1145,1,NaN,NaN,7.21171597501962,1.8013894422329,3,0,2
6,1,1,1,5,2,2,THOMAS,2,3,9603,5,DOUGLAS,STEPHEN,JOSHUA,JORDAN,7887,5750,0,1,0,15.8022905185353,6.61279137752717,3,4,2
6,1,1,1,6,2,1,STEPHEN,37,60,1122,12,ALFRED,ROBBIE,RICHARD,HENRY,1089,1135,0,1,0,5.73581668641418,0.0462577540893108,0,0,1
6,1,1,1,7,2,3,HAYLEY,37,57,1088,4,CARYS,KERRY,LYDIA,KIRSTY,1009,1202,1,NaN,NaN,6.84202170395292,1.09194703993853,1,0,2
6,1,1,1,8,2,4,KERRY,74,136,333,1,HAYLEY,CARYS,SIOBHAN,TIFFANY,332,346,0,1,0,5.10048397921491,1.04968929541064,1,0,0
6,1,1,1,9,2,2,DOUGLAS,110,218,142,16,LOUIS,THOMAS,JAMAL,CALVIN,139,147,0,1,0,6.99648733471986,1.5123509648256,0,1,1
6,1,1,1,10,2,4,CASEY,110,201,215,9,HARRIET,CHLOE,VANESSA,KIERA,213,221,0,0,1,4.47295839665458,0.0454287879401818,0,0,1
6,1,1,1,11,2,2,ROBBIE,74,130,302,15,STEPHEN,ALFRED,TOBIAS,GRANT,296,307,0,1,0,10.6911147086066,4.47563518513925,1,0,1
6,1,1,1,12,2,1,OSCAR,73,128,307,7,DANIEL,LOUIS,LLOYD,MASON,299,320,1,NaN,NaN,10.6356493908679,5.88230122689856,3,0,1
6,1,1,1,13,2,3,CARYS,109,199,217,10,CHLOE,SOPHIE,ELENA,KIRSTEN,213,225,1,NaN,NaN,7.06380725919735,0.989534715306945,0,1,2
6,1,1,1,14,2,1,ALFRED,109,218,142,14,THOMAS,DANIEL,DUNCAN,FELIX,139,149,1,NaN,NaN,6.44048389513046,1.43904439645121,3,0,2
6,1,1,1,15,2,2,LOUIS,38,61,1100,6,ROBBIE,OSCAR,ANTHONY,PETER,1045,1128,0,1,0,4.35299356241012,0.0428081852151081,0,0,1
6,1,1,1,16,2,3,MAISIE,73,135,335,3,SOPHIE,HARRIET,SASHA,ELOISE,333,351,1,NaN,NaN,6.40454209764721,0.045765602379106,0,0,1
6,1,1,2,1,1,4,HANNAH,6,6,5916,2,ELLEN,SUMMER,MEGAN,EMILY,4948,6415,0,1,0,3.50829987722682,0.0415943312109448,0,0,1
6,1,1,2,2,1,1,MATTHEW,5,6,7426,6,CIARAN,PERRY,SAMUEL,JAMES,6161,9385,1,NaN,NaN,9.23139603430172,0.0375285210902803,0,0,1
6,1,1,2,3,1,2,TYLER,42,67,1007,7,MATTHEW,CIARAN,ELLIOT,ANTHONY,919,1045,0,1,0,5.12611823296174,1.27614878962049,0,1,2
6,1,1,2,4,1,3,LAUREN,5,5,6299,9,MILLIE,POLLY,REBECCA,JESSICA,5828,6711,1,NaN,NaN,8.34740682924166,3.28249147749739,3,0,1
6,1,1,2,5,1,4,PHOEBE,42,65,910,8,LAUREN,MILLIE,ROSIE,AMELIA,879,929,1,NaN,NaN,5.93543077696813,1.56894270307384,1,0,1
6,1,1,2,6,1,3,AISHA,77,139,328,1,POLLY,PHOEBE,SHAUNA,SASHA,316,333,1,NaN,NaN,6.46258445148123,1.35833962797187,2,0,2
6,1,1,2,7,1,2,JOSEPH,6,8,6193,10,PATRICK,DAMON,JORDAN,JOSHUA,5750,7887,0,1,0,4.71592840907397,1.40823353588348,3,0,3
6,1,1,2,8,1,3,ELLEN,41,63,929,16,HANNAH,LAUREN,CAITLIN,LYDIA,906,1009,1,NaN,NaN,10.6937205888098,0.320081893063616,0,1,1
6,1,1,2,9,1,1,PERRY,113,220,139,4,TYLER,PATRICK,REGAN,DUNCAN,136,139,1,NaN,NaN,4.99563553370535,0.740820829756558,0,1,1
6,1,1,2,10,1,4,SUMMER,114,206,203,13,AISHA,HANNAH,SINEAD,VANESSA,202,213,1,NaN,NaN,3.87585427978775,1.19383927009767,3,0,4
6,1,1,2,11,1,3,POLLY,113,204,212,5,PHOEBE,ELLEN,DEANNA,ELENA,202,213,0,1,0,7.36340596625814,0.035272375040222,0,0,1
6,1,1,2,12,1,4,MILLIE,78,140,324,3,SUMMER,AISHA,SALLY,SIOBHAN,309,332,1,NaN,NaN,4.50517570541706,1.37035197560908,3,0,4
6,1,1,2,13,1,2,CIARAN,78,136,278,12,DAMON,MORGAN,KEVIN,TOBIAS,250,296,1,NaN,NaN,3.12881635408849,0.0426044740597717,0,0,3
6,1,1,2,14,1,2,DAMON,114,226,136,11,MORGAN,JOSEPH,WARREN,JAMAL,136,139,1,NaN,NaN,12.479305591376,1.32706666161539,0,1,1
6,1,1,2,15,1,1,MORGAN,77,133,294,14,PERRY,TYLER,FRASER,LLOYD,278,299,0,1,0,5.69456307566725,0.0373674751026556,0,0,2
6,1,1,2,16,1,1,PATRICK,41,66,1039,15,JOSEPH,MATTHEW,JASON,RICHARD,1001,1089,0,0,1,2.70570078736637,0.035873893823009,0,0,2
6,1,1,3,1,1,1,CONNOR,9,13,5009,2,ANGUS,HARRY,GEORGE,SAMUEL,4287,6161,0,0,1,6.30214359413367,0.0326520727830939,0,0,1
6,1,1,3,2,1,3,SHANNON,9,11,4649,14,APRIL,KATIE,BETHANY,REBECCA,4271,5828,1,NaN,NaN,4.58441122970544,1.17645441647619,3,0,4
6,1,1,3,3,1,4,KATIE,10,12,4337,3,SHANNON,HELENA,GEORGIA,MEGAN,3723,4948,1,NaN,NaN,2.83354095043615,0.834884302283172,1,0,3
6,1,1,3,4,1,1,BILLY,45,71,914,15,TRISTAN,CONNOR,SHAUN,JASON,773,1001,0,1,0,6.5257739671506,0.990770803298801,2,0,1
6,1,1,3,5,1,1,TRISTAN,81,141,250,5,ARTHUR,BILLY,TOMMY,FRASER,247,278,1,NaN,NaN,6.4818883362459,0.970580564753618,0,1,1
6,1,1,3,6,1,3,HELENA,81,145,308,16,EBONY,AIMEE,CLAUDIA,SHAUNA,290,316,0,0,1,5.07116850273451,0.491564615746029,1,0,2
6,1,1,3,7,1,3,AIMEE,45,70,876,4,HELENA,SHANNON,BETHAN,CAITLIN,825,906,0,0,1,8.53745220450219,2.35327298915945,3,0,2
6,1,1,3,8,1,2,HARRY,10,17,4434,6,CONNOR,TRISTAN,CALLUM,JORDAN,4281,5750,1,NaN,NaN,4.44899739866378,1.36506329767872,3,0,4
6,1,1,3,9,1,2,ARTHUR,118,234,129,12,BILLY,SHANE,BOBBY,WARREN,126,136,0,1,0,6.64721615792951,2.66613725805655,1,0,1
6,1,1,3,10,1,2,SHANE,46,74,846,9,JEROME,ANGUS,CURTIS,ELLIOT,757,919,0,0,1,5.32248075708048,0.507326390361413,1,0,2
6,1,1,3,11,1,2,ANGUS,82,144,247,1,SHANE,JEROME,RICKY,KEVIN,242,250,1,NaN,NaN,2.86922765837517,0.0441353122587316,0,0,1
6,1,1,3,12,1,1,JEROME,117,230,135,11,HARRY,ARTHUR,SONNY,REGAN,127,136,1,NaN,NaN,2.56670037814183,0.0449510582257062,0,0,1
6,1,1,3,13,1,4,APRIL,82,146,300,13,DAISY,SHELBY,JENNA,SALLY,289,309,1,NaN,NaN,1.32095202215714,0.0219016525661573,0,0,4
6,1,1,3,14,1,4,EBONY,118,211,200,7,AIMEE,DAISY,SHANICE,SINEAD,200,202,1,NaN,NaN,2.65203371632379,0.815583422139753,2,0,4
6,1,1,3,15,1,3,SHELBY,117,209,201,8,KATIE,EBONY,MATILDA,DEANNA,200,202,1,NaN,NaN,4.34367783355992,0.0335213004727848,0,0,1
6,1,1,3,16,1,4,DAISY,46,71,828,10,SHELBY,APRIL,KELLY,ROSIE,789,879,0,0,1,11.0843553443556,2.41123512055492,2,2,2
6,1,1,4,1,0,1,CRAIG,49,81,705,11,MILES,TIMOTHY,AIDAN,SHAUN,680,773,0,1,0,5.31733810220612,1.10241893469356,3,0,1
6,1,1,4,2,0,2,STEFAN,86,155,222,12,MICHAEL,CRAIG,KURTIS,RICKY,214,242,1,NaN,NaN,2.0711285417201,0.601907553558704,0,1,4
6,1,1,4,3,0,4,SARAH,14,18,3111,5,LAURA,JOSIE,ELEANOR,GEORGIA,2555,3723,1,NaN,NaN,3.64246980840107,1.16331444645766,3,0,4
6,1,1,4,4,0,2,TIMOTHY,50,82,691,13,CRAIG,MILES,DECLAN,CURTIS,680,757,0,0,1,7.70982548739994,0.0366070135496557,0,0,1
6,1,1,4,5,0,1,WILLIAM,13,21,4269,4,SPENCER,STEFAN,OLIVER,GEORGE,3655,4287,0,1,0,6.29902963788481,1.89626565616345,1,0,1
6,1,1,4,6,0,3,LAURA,13,17,3582,1,MARTHA,NIKITA,ABIGAIL,BETHANY,2595,4271,1,NaN,NaN,3.64726242865436,1.36986372986576,2,0,3
6,1,1,4,7,0,3,NAOMI,49,75,766,9,NADIA,HEATHER,ROBYN,BETHAN,683,825,0,1,0,0.0489705976797268,0.0259350131382234,0,0,1
6,1,1,4,8,0,2,MICHAEL,14,22,4187,7,WILLIAM,FERGUS,LEWIS,CALLUM,3569,4281,0,0,1,5.74126641027397,1.09579651959939,3,0,1
6,1,1,4,9,0,3,MARTHA,121,214,198,15,NIKITA,LAURA,JESSIE,MATILDA,194,200,0,0,1,6.5321647283854,0.553290896525141,0,1,1
6,1,1,4,10,0,4,JOSIE,122,215,197,6,HEATHER,MARTHA,HEIDI,SHANICE,193,200,0,1,0,7.40920852508862,2.6393570539658,3,0,2
6,1,1,4,11,0,4,HEATHER,50,78,713,14,NAOMI,NADIA,YASMIN,KELLY,661,789,0,0,1,5.82119629520457,1.01457916817162,1,0,1
6,1,1,4,12,0,1,MILES,85,154,223,2,FERGUS,MICHAEL,BRETT,TOMMY,214,247,1,NaN,NaN,5.16112019499997,0.551929517125245,0,1,2
6,1,1,4,13,0,2,FERGUS,122,243,120,10,TIMOTHY,SPENCER,BARNABY,BOBBY,113,126,1,NaN,NaN,2.97913913714001,0.958942288474645,2,0,3
6,1,1,4,14,0,4,NIKITA,86,155,284,3,SARAH,NAOMI,CIARA,JENNA,276,289,1,NaN,NaN,3.15081084851408,1.21878156694584,3,0,3
6,1,1,4,15,0,1,SPENCER,121,239,124,16,STEFAN,WILLIAM,VINCENT,SONNY,117,127,0,1,0,9.90497686166782,3.90597198164323,3,3,1
6,1,1,4,16,0,3,NADIA,85,153,285,8,JOSIE,SARAH,FIONA,CLAUDIA,278,290,0,0,1,7.39024355798028,1.33219669724349,3,0,1
6,1,1,5,1,1,1,TRAVIS,89,165,205,4,DARYL,NATHAN,GABRIEL,BRETT,189,214,0,1,0,4.55523787031416,0.555814451014157,0,1,1
6,1,1,5,2,1,3,KATHRYN,53,86,635,1,LEANNE,FRANCES,CLAIRE,ROBYN,564,683,0,1,0,5.46842957934132,0.0359994856407866,0,0,2
6,1,1,5,3,1,4,LEANNE,54,88,616,13,OLIVIA,LIBBY,IMOGEN,YASMIN,555,661,1,NaN,NaN,4.45261852955446,0.0367305021500215,0,0,1
6,1,1,5,4,1,3,HOLLY,17,23,2498,2,RHIAN,LEANNE,ALICE,ABIGAIL,2357,2595,1,NaN,NaN,3.46555208426435,0.504897179955151,1,0,3
6,1,1,5,5,1,2,NATHAN,18,27,2744,7,MARCUS,BRIAN,ROBERT,LEWIS,2644,3569,1,NaN,NaN,7.26194339233916,0.509422692237422,1,0,3
6,1,1,5,6,1,1,KIERAN,17,26,2882,12,BRIAN,SIMON,ANDREW,OLIVER,2676,3655,1,NaN,NaN,4.81656472099712,1.53155209269607,3,0,1
6,1,1,5,7,1,4,OLIVIA,18,24,2456,9,KATHRYN,RHIAN,RACHEL,ELEANOR,2105,2555,1,NaN,NaN,5.60504164063605,1.4899541559862,1,0,2
6,1,1,5,8,1,1,MARCUS,53,85,674,8,SIMON,LUCAS,ETHAN,AIDAN,604,680,0,1,0,4.71213421376888,0.0366767200175673,0,0,1
6,1,1,5,9,1,4,LIBBY,126,220,191,15,FRANCES,KATHRYN,ALISON,HEIDI,181,193,1,NaN,NaN,2.66579743905459,0.697915596305393,0,1,4
6,1,1,5,10,1,2,LUCAS,90,169,202,10,KIERAN,TRAVIS,HARLEY,KURTIS,186,214,1,NaN,NaN,5.35684754891554,0.467309768951964,1,0,3
6,1,1,5,11,1,2,SIMON,54,87,656,16,NATHAN,DARYL,ZACHARY,DECLAN,574,680,1,NaN,NaN,3.71148972940864,1.10563444602303,3,0,4
6,1,1,5,12,1,1,BRIAN,125,251,113,5,TRAVIS,KIERAN,LOGAN,VINCENT,111,117,0,1,0,4.81537580501754,0.0411836038692854,0,0,1
6,1,1,5,13,1,4,FRANCES,90,161,274,14,HOLLY,RHIANNA,SABRINA,CIARA,272,276,1,NaN,NaN,4.57209151255665,0.547288929112256,0,1,2
6,1,1,5,14,1,2,DARYL,126,257,111,6,LUCAS,MARCUS,RUSSELL,BARNABY,111,113,0,1,0,7.10466847062344,1.95147828792688,3,0,1
6,1,1,5,15,1,3,RHIAN,125,219,192,11,RHIANNA,HOLLY,JULIA,JESSIE,184,194,1,NaN,NaN,4.92881136649521,0.493958972976543,1,0,3
6,1,1,5,16,1,3,RHIANNA,89,158,276,3,LIBBY,OLIVIA,LORNA,FIONA,274,278,1,NaN,NaN,5.37339412217261,0.550798289303202,1,0,2
6,1,1,6,1,0,3,POPPY,57,92,537,13,BROOKE,MOLLY,MARIA,CLAIRE,511,564,0,1,0,7.13189725985285,3.94150395313045,3,3,1
6,1,1,6,2,0,1,COREY,57,101,527,1,WESLEY,DAVID,ISAAC,ETHAN,480,604,1,NaN,NaN,8.19095035758801,1.82858458010014,0,1,1
6,1,1,6,3,0,4,ISOBEL,58,94,522,10,AMANDA,JEMIMA,STACEY,IMOGEN,509,555,1,NaN,NaN,5.91423009504797,0.504189298779238,1,0,4
6,1,1,6,4,0,4,AMANDA,94,170,264,7,JEMIMA,ISOBEL,ELISE,SABRINA,253,272,0,0,1,0.168872936512344,0.0235785138211213,0,0,1
6,1,1,6,5,0,2,DAVID,22,32,2517,12,JEREMY,BRADLEY,JACOB,ROBERT,2249,2644,1,NaN,NaN,2.64910694595892,0.429329658159986,0,1,4
6,1,1,6,6,0,4,MOLLY,22,29,2026,5,MARYAM,PAIGE,NATASHA,RACHEL,1751,2105,1,NaN,NaN,3.02623817621497,0.0402768187923357,0,0,3
6,1,1,6,7,0,1,BRADLEY,21,31,2557,6,DAVID,COREY,AARON,ANDREW,2511,2676,0,0,1,5.9569180966937,0.0395755476783961,0,0,1
6,1,1,6,8,0,3,PAIGE,21,28,2052,8,MOLLY,POPPY,ELLIE,ALICE,1900,2357,1,NaN,NaN,12.0746637413977,3.59047869715141,1,2,1
6,1,1,6,9,0,4,MARYAM,130,229,176,4,ISOBEL,BROOKE,ALANA,ALISON,170,181,1,NaN,NaN,2.31937821826432,0.620121373387519,0,1,4
6,1,1,6,10,0,1,WESLEY,93,178,185,11,BRADLEY,JUSTIN,CALEB,GABRIEL,177,189,1,NaN,NaN,6.17332123086089,0.715389385761227,0,1,2
6,1,1,6,11,0,1,ALBERT,129,261,110,9,COREY,JEREMY,STANLEY,LOGAN,108,111,1,NaN,NaN,2.1815622181748,0.508056505525019,0,1,4
6,1,1,6,12,0,3,BROOKE,93,166,269,2,PAIGE,AMANDA,CHARLEY,LORNA,256,274,0,1,0,8.9558574766852,3.01215326291276,1,0,1
6,1,1,6,13,0,2,JEREMY,130,265,108,14,PHILIP,WESLEY,USMAN,RUSSELL,106,111,1,NaN,NaN,3.27521105733467,0.745948161231354,0,1,2
6,1,1,6,14,0,2,PHILIP,58,103,481,3,JUSTIN,ALBERT,NIALL,ZACHARY,462,574,0,1,0,6.58340619463706,0.0357053363113664,0,0,2
6,1,1,6,15,0,3,JEMIMA,129,228,177,16,POPPY,MARYAM,SASKIA,JULIA,171,184,1,NaN,NaN,4.08690714195836,1.12115314928815,3,0,3
6,1,1,6,16,0,2,JUSTIN,94,181,182,15,ALBERT,PHILIP,GAVIN,HARLEY,176,186,0,1,0,5.18137713545002,0.0350431248662062,0,0,1
6,1,1,7,1,2,1,FRANCIS,97,188,172,13,MARTIN,CHARLIE,ARCHIE,CALEB,169,177,0,1,0,6.1354634067975,0.0448329778737389,0,0,1
6,1,1,7,2,2,1,CHARLIE,25,38,1912,14,ASHLEY,JULIAN,REECE,AARON,1811,2511,0,0,1,4.66214836545987,0.0346969962120056,0,0,1
6,1,1,7,3,2,3,CHELSEA,25,34,1735,11,NICOLE,MADISON,AMBER,ELLIE,1422,1900,1,NaN,NaN,3.32705374184297,1.20364084100584,3,0,4
6,1,1,7,4,2,1,ELLIS,61,107,443,7,ROWAN,MARTIN,STUART,ISAAC,405,480,0,1,0,6.1598522583372,0.0357173546799459,0,0,1
6,1,1,7,5,2,4,NICOLE,26,36,1679,4,MADISON,ALICIA,GRACE,NATASHA,1421,1751,1,NaN,NaN,5.02710469975136,1.1930181158823,3,0,2
6,1,1,7,6,2,2,MARTIN,62,109,435,9,GLENN,ROWAN,HARVEY,NIALL,401,462,1,NaN,NaN,7.31645655573811,1.20060260040918,3,0,2
6,1,1,7,7,2,4,KELSEY,62,107,438,6,TANYA,INDIA,FREYA,STACEY,394,509,1,NaN,NaN,4.51309940801002,1.09567212959519,3,0,4
6,1,1,7,8,2,2,ASHLEY,26,40,1874,16,JULIAN,ELLIS,CAMERON,JACOB,1791,2249,1,NaN,NaN,4.47025156224845,0.921432696282864,2,0,1
6,1,1,7,9,2,4,TANYA,134,235,169,8,KATRINA,NICOLE,SAFFRON,ALANA,166,170,1,NaN,NaN,4.0680034684483,1.02024251845432,2,0,4
6,1,1,7,10,2,3,ALICIA,61,98,504,1,INDIA,KELSEY,TAMARA,MARIA,397,511,1,NaN,NaN,2.15497370687081,0.0374179522041231,0,0,4
6,1,1,7,11,2,4,INDIA,98,180,245,2,CHELSEA,TANYA,ELISHA,ELISE,240,253,1,NaN,NaN,1.60665240092203,0.0388553476659581,0,0,4
6,1,1,7,12,2,3,KATRINA,97,177,251,5,KELSEY,CHELSEA,BILLIE,CHARLEY,242,256,1,NaN,NaN,3.79769740300253,1.00850298744626,3,0,4
6,1,1,7,13,2,2,ROWAN,98,188,172,12,CHARLIE,GLENN,JESSE,GAVIN,161,176,1,NaN,NaN,3.28987705823965,0.503822738886811,0,1,1
6,1,1,7,14,2,2,GLENN,134,278,100,3,FRANCIS,ASHLEY,DAMIEN,USMAN,90,106,1,NaN,NaN,2.13690260506701,0.365565364540089,1,0,4
6,1,1,7,15,2,3,MADISON,133,235,169,15,ALICIA,KATRINA,MELANIE,SASKIA,166,171,1,NaN,NaN,3.81456246267771,0.0358717906055972,0,0,3
6,1,1,7,16,2,1,JULIAN,133,274,102,10,ELLIS,FRANCIS,JASPER,STANLEY,94,108,1,NaN,NaN,2.64444502530387,0.0366644011810422,0,0,1
6,1,1,8,1,0,1,CHARLES,29,44,1738,7,FRANK,ALFIE,SCOTT,REECE,1632,1811,0,1,0,7.33426655869698,1.32634195475839,3,0,1
6,1,1,8,2,0,3,NATALIE,29,42,1393,1,NADINE,NIAMH,LOUISE,AMBER,1309,1422,1,NaN,NaN,5.40858867840143,0.0362248297897168,0,0,1
6,1,1,8,3,0,4,NIAMH,66,120,381,2,SIMRAN,NADINE,JOANNA,FREYA,374,394,1,NaN,NaN,4.61781444982626,1.89322020456893,1,0,1
6,1,1,8,4,0,3,SIMRAN,101,184,240,16,CARLY,ANNIE,SADIE,BILLIE,235,242,1,NaN,NaN,7.25081649713684,0.513800979591906,1,0,2
6,1,1,8,5,0,3,ANNIE,65,119,389,13,NIAMH,SIMRAN,ANNABEL,TAMARA,380,397,1,NaN,NaN,4.0387312581297,0.739579934393987,0,1,1
6,1,1,8,6,0,2,ALFIE,66,119,372,9,ROBIN,FRANK,DARREN,HARVEY,343,401,0,1,0,5.99698219058337,1.24310972576495,3,0,2
6,1,1,8,7,0,4,JODIE,30,43,1354,10,BROGAN,NATALIE,ABBIE,GRACE,1297,1421,0,1,0,3.29123573342804,0.037327514088247,0,0,1
6,1,1,8,8,0,2,EDWARD,30,45,1658,5,FREDDIE,CHARLES,DOMINIC,CAMERON,1519,1791,1,NaN,NaN,3.11678327480331,0.0362617862410843,0,0,2
